t, aX, aY, aZ, gX, gY, gZ
0.0000, -0.13, -0.28, 0.98, -5.73, 7.07, 3.41
0.0033, -0.13, -0.28, 1.00, -4.57, 5.55, 3.48
0.0067, -0.13, -0.28, 0.98, -3.41, 4.09, 3.54
0.0100, -0.13, -0.28, 0.99, -2.44, 2.93, 3.60
0.0133, -0.12, -0.27, 1.00, -1.04, 1.89, 3.84
0.0167, -0.12, -0.27, 1.00, 0.00, 1.22, 3.84
0.0200, -0.10, -0.26, 0.99, 0.61, 0.98, 4.02
0.0233, -0.12, -0.26, 0.99, 1.34, 0.73, 4.33
0.0267, -0.11, -0.27, 0.99, 1.77, 0.67, 4.57
0.0300, -0.11, -0.26, 0.96, 2.20, 0.61, 4.76
0.0333, -0.11, -0.27, 0.99, 2.26, 0.79, 5.06
0.0367, -0.11, -0.26, 0.98, 2.38, 0.85, 5.43
0.0400, -0.10, -0.26, 0.97, 2.38, 0.91, 5.61
0.0433, -0.10, -0.26, 0.98, 2.32, 0.91, 5.73
0.0467, -0.10, -0.25, 0.96, 2.20, 0.85, 5.67
0.0500, -0.10, -0.25, 0.96, 2.13, 0.98, 5.55
0.0533, -0.09, -0.25, 0.97, 1.89, 0.85, 5.43
0.0567, -0.09, -0.25, 0.97, 1.52, 0.91, 5.12
0.0600, -0.08, -0.24, 0.97, 1.46, 0.85, 4.82
0.0633, -0.09, -0.25, 0.98, 1.16, 1.04, 4.45
0.0667, -0.08, -0.25, 0.97, 1.04, 1.16, 4.02
0.0700, -0.08, -0.25, 0.97, 0.55, 1.34, 3.54
0.0733, -0.09, -0.24, 0.98, 0.43, 1.65, 3.29
0.0767, -0.10, -0.24, 0.98, 0.37, 1.95, 2.87
0.0800, -0.10, -0.24, 0.99, 0.12, 2.44, 2.56
0.0833, -0.11, -0.25, 0.99, -0.18, 2.80, 2.32
0.0867, -0.10, -0.25, 0.98, -0.30, 3.11, 2.26
0.0900, -0.11, -0.25, 0.97, -0.37, 3.48, 2.20
0.0933, -0.10, -0.25, 0.99, -0.55, 3.54, 2.20
0.0967, -0.10, -0.25, 0.99, -0.73, 3.66, 2.26
0.1000, -0.10, -0.25, 0.95, -0.67, 3.66, 2.26
0.1033, -0.10, -0.24, 0.97, -0.61, 3.60, 2.20
0.1067, -0.11, -0.24, 0.97, -0.61, 3.29, 2.13
0.1100, -0.10, -0.24, 0.98, -0.49, 2.99, 2.07
0.1133, -0.10, -0.24, 0.96, -0.49, 2.50, 1.89
0.1167, -0.10, -0.24, 0.97, -0.61, 1.95, 1.83
0.1200, -0.10, -0.25, 0.97, -0.55, 1.52, 1.40
0.1233, -0.09, -0.24, 0.97, -0.55, 1.10, 1.10
0.1267, -0.09, -0.24, 0.97, -0.43, 0.73, 0.79
0.1300, -0.10, -0.25, 0.99, -0.55, 0.43, 0.49
0.1333, -0.10, -0.25, 0.98, -0.55, 0.55, 0.30
0.1367, -0.10, -0.25, 0.98, -0.55, 0.67, 0.12
0.1400, -0.11, -0.25, 0.99, -0.61, 0.85, 0.00
0.1433, -0.11, -0.25, 0.98, -0.67, 1.16, 0.12
0.1467, -0.11, -0.27, 0.99, -0.61, 1.28, 0.12
0.1500, -0.12, -0.25, 0.97, -0.49, 1.71, 0.18
0.1533, -0.12, -0.27, 0.97, -0.30, 2.07, 0.43
0.1567, -0.12, -0.26, 0.98, -0.12, 2.26, 0.79
0.1600, -0.12, -0.26, 0.97, 0.06, 2.13, 1.04
0.1633, -0.12, -0.27, 0.97, 0.55, 1.95, 1.22
0.1667, -0.12, -0.26, 0.96, 0.79, 1.89, 1.34
0.1700, -0.12, -0.26, 0.97, 1.16, 1.46, 1.52
0.1733, -0.11, -0.27, 0.98, 1.65, 0.91, 1.65
0.1767, -0.12, -0.26, 0.97, 1.95, 0.37, 1.71
0.1800, -0.12, -0.26, 0.96, 2.13, -0.12, 1.77
0.1833, -0.11, -0.27, 0.99, 2.50, -0.61, 1.52
0.1867, -0.12, -0.25, 0.98, 2.80, -0.98, 1.34
0.1900, -0.10, -0.26, 0.98, 2.87, -1.28, 1.04
0.1933, -0.11, -0.26, 0.97, 2.87, -1.22, 0.98
0.1967, -0.10, -0.26, 0.96, 2.74, -0.98, 1.04
0.2000, -0.11, -0.25, 0.98, 2.56, -0.67, 0.98
0.2033, -0.10, -0.26, 0.97, 2.56, -0.43, 1.10
0.2067, -0.11, -0.26, 0.97, 2.38, -0.18, 1.10
0.2100, -0.10, -0.25, 0.98, 1.95, -0.06, 1.16
0.2133, -0.10, -0.24, 0.98, 1.65, 0.18, 1.22
0.2167, -0.10, -0.25, 0.98, 1.22, 0.12, 1.04
0.2200, -0.10, -0.25, 0.98, 0.85, 0.30, 1.10
0.2233, -0.11, -0.25, 0.98, 0.43, 0.43, 1.10
0.2267, -0.11, -0.25, 0.98, 0.06, 0.67, 1.10
0.2300, -0.11, -0.25, 1.00, -0.37, 1.04, 0.98
0.2333, -0.12, -0.26, 1.00, -0.67, 1.34, 1.10
0.2367, -0.11, -0.26, 0.99, -0.98, 1.89, 1.22
0.2400, -0.12, -0.26, 0.99, -1.34, 2.38, 1.40
0.2433, -0.11, -0.26, 1.00, -1.65, 2.80, 1.77
0.2467, -0.11, -0.26, 1.00, -2.01, 3.23, 2.01
0.2500, -0.11, -0.26, 0.99, -2.38, 3.72, 2.26
0.2533, -0.12, -0.26, 0.98, -2.50, 4.02, 2.50
0.2567, -0.10, -0.26, 0.98, -2.44, 4.02, 2.56
0.2600, -0.11, -0.26, 0.97, -2.44, 3.84, 2.68
0.2633, -0.11, -0.27, 0.97, -2.07, 3.41, 2.74
0.2667, -0.11, -0.26, 0.98, -1.71, 2.62, 2.50
0.2700, -0.11, -0.27, 0.98, -1.22, 1.59, 2.20
0.2733, -0.11, -0.27, 0.97, -0.91, 0.73, 1.95
0.2767, -0.12, -0.26, 0.97, -0.24, -0.18, 1.52
0.2800, -0.11, -0.26, 0.99, 0.18, -0.91, 1.40
0.2833, -0.11, -0.26, 0.98, 0.67, -1.46, 1.22
0.2867, -0.11, -0.26, 0.96, 0.91, -1.71, 1.04
0.2900, -0.12, -0.26, 0.99, 1.22, -1.65, 0.98
0.2933, -0.12, -0.27, 0.97, 0.98, -1.34, 1.10
0.2967, -0.12, -0.26, 0.98, 0.79, -1.10, 1.28
0.3000, -0.12, -0.25, 0.99, 0.85, -0.49, 1.40
0.3033, -0.12, -0.27, 0.98, 0.61, 0.12, 1.83
0.3067, -0.13, -0.27, 0.96, 0.61, 0.49, 2.07
0.3100, -0.13, -0.27, 0.96, 0.49, 0.79, 2.38
0.3133, -0.13, -0.26, 0.97, 0.43, 0.85, 2.68
0.3167, -0.14, -0.26, 0.98, 0.24, 0.91, 2.99
0.3200, -0.13, -0.26, 0.96, 0.24, 0.85, 3.23
0.3233, -0.13, -0.26, 0.96, 0.30, 0.79, 3.29
0.3267, -0.13, -0.27, 0.96, 0.24, 0.61, 3.48
0.3300, -0.12, -0.26, 0.97, 0.06, 0.55, 3.66
0.3333, -0.12, -0.27, 0.96, 0.06, 0.49, 3.72
0.3367, -0.12, -0.26, 0.96, -0.12, 0.67, 3.78
0.3400, -0.12, -0.26, 0.96, -0.37, 0.91, 3.96
0.3433, -0.12, -0.26, 0.97, -0.73, 1.16, 4.21
0.3467, -0.12, -0.26, 0.97, -1.04, 1.65, 4.45
0.3500, -0.12, -0.26, 0.98, -1.40, 2.07, 4.70
0.3533, -0.12, -0.26, 0.96, -1.89, 2.56, 5.00
0.3567, -0.13, -0.26, 0.97, -2.32, 3.05, 5.37
0.3600, -0.14, -0.26, 0.97, -2.80, 3.60, 5.73
0.3633, -0.14, -0.25, 0.99, -3.23, 4.15, 6.22
0.3667, -0.13, -0.26, 0.98, -3.66, 4.70, 6.71
0.3700, -0.14, -0.26, 0.98, -4.09, 5.18, 7.20
0.3733, -0.13, -0.26, 0.98, -4.39, 5.61, 7.74
0.3767, -0.13, -0.25, 1.00, -4.82, 5.91, 8.23
0.3800, -0.12, -0.27, 1.00, -4.88, 6.40, 8.72
0.3833, -0.13, -0.27, 0.99, -4.76, 6.59, 9.09
0.3867, -0.12, -0.27, 1.00, -4.70, 6.40, 9.39
0.3900, -0.12, -0.27, 1.01, -4.21, 6.16, 9.39
0.3933, -0.13, -0.27, 1.00, -3.78, 5.73, 9.39
0.3967, -0.12, -0.28, 1.01, -2.99, 5.12, 9.27
0.4000, -0.13, -0.29, 1.02, -2.13, 4.51, 9.09
0.4033, -0.14, -0.30, 1.02, -1.28, 3.72, 9.02
0.4067, -0.15, -0.30, 1.04, -0.37, 3.05, 9.09
0.4100, -0.14, -0.30, 1.03, 0.67, 2.26, 9.21
0.4133, -0.15, -0.29, 1.03, 1.89, 1.52, 9.39
0.4167, -0.16, -0.29, 1.03, 2.99, 0.79, 9.57
0.4200, -0.14, -0.29, 1.04, 4.09, 0.49, 9.82
0.4233, -0.14, -0.29, 1.02, 5.12, 0.24, 10.12
0.4267, -0.13, -0.28, 1.02, 6.22, 0.00, 10.43
0.4300, -0.12, -0.28, 1.02, 7.01, 0.12, 10.55
0.4333, -0.12, -0.28, 1.02, 7.74, 0.18, 10.61
0.4367, -0.05, -0.22, 0.81, 8.29, 0.43, 10.49
0.4400, 0.05, -0.30, 0.91, 7.68, 1.34, 10.18
0.4433, -0.02, -0.24, 0.94, 7.26, 0.79, 9.21
0.4467, -0.01, -0.23, 0.89, 7.99, 1.89, 8.48
0.4500, -0.06, -0.27, 0.98, 7.32, 2.56, 7.87
0.4533, -0.09, -0.20, 0.94, 7.01, 3.11, 6.95
0.4567, -0.08, -0.23, 0.93, 6.59, 3.23, 6.22
0.4600, -0.08, -0.24, 0.95, 5.43, 2.99, 5.61
0.4633, -0.11, -0.23, 0.97, 4.57, 3.17, 5.18
0.4667, -0.13, -0.26, 0.96, 3.60, 3.78, 5.00
0.4700, -0.21, -0.34, 0.96, 2.44, 4.45, 5.18
0.4733, -0.18, -0.19, 0.99, 1.46, 5.30, 5.30
0.4767, -0.19, -0.22, 1.02, -0.30, 6.16, 5.85
0.4800, -0.19, -0.30, 0.90, -2.38, 6.95, 7.20
0.4833, -0.17, -0.23, 0.96, -4.09, 8.05, 8.17
0.4867, -0.19, -0.29, 0.91, -6.04, 9.57, 9.09
0.4900, -0.19, -0.26, 0.93, -7.99, 11.34, 10.24
0.4933, -0.19, -0.29, 0.93, -9.63, 12.80, 11.65
0.4967, -0.20, -0.30, 0.93, -11.65, 14.09, 13.23
0.5000, -0.19, -0.29, 0.93, -13.60, 15.24, 14.88
0.5033, -0.19, -0.29, 0.93, -15.55, 16.40, 16.71
0.5067, -0.19, -0.31, 0.91, -17.32, 17.44, 18.48
0.5100, -0.19, -0.32, 0.91, -18.90, 18.23, 20.37
0.5133, -0.18, -0.31, 0.90, -20.00, 18.66, 22.26
0.5167, -0.19, -0.31, 0.89, -21.28, 18.66, 23.96
0.5200, -0.19, -0.31, 0.90, -22.62, 18.48, 25.49
0.5233, -0.20, -0.32, 0.89, -23.78, 17.56, 26.95
0.5267, -0.20, -0.32, 0.86, -24.82, 16.46, 28.23
0.5300, -0.20, -0.33, 0.86, -25.73, 14.76, 29.09
0.5333, -0.21, -0.32, 0.87, -26.77, 12.99, 29.82
0.5367, -0.21, -0.33, 0.88, -27.68, 10.98, 30.55
0.5400, -0.22, -0.33, 0.90, -28.41, 8.96, 31.04
0.5433, -0.21, -0.34, 0.90, -29.45, 7.38, 31.71
0.5467, -0.20, -0.33, 0.92, -30.24, 5.85, 32.38
0.5500, -0.21, -0.34, 0.91, -31.04, 4.63, 33.17
0.5533, -0.20, -0.33, 0.93, -31.77, 3.96, 34.15
0.5567, -0.20, -0.33, 0.94, -32.13, 3.66, 35.12
0.5600, -0.21, -0.33, 0.94, -32.50, 3.60, 36.22
0.5633, -0.21, -0.33, 0.98, -32.68, 3.84, 37.50
0.5667, -0.21, -0.33, 0.96, -32.87, 4.15, 38.90
0.5700, -0.21, -0.34, 0.98, -32.87, 4.70, 40.49
0.5733, -0.23, -0.34, 0.98, -32.62, 5.30, 42.20
0.5767, -0.23, -0.36, 0.98, -32.44, 5.85, 43.84
0.5800, -0.24, -0.35, 0.98, -32.20, 6.28, 45.55
0.5833, -0.25, -0.35, 0.98, -31.65, 6.59, 47.26
0.5867, -0.24, -0.34, 0.97, -31.10, 6.77, 48.96
0.5900, -0.26, -0.34, 0.97, -30.79, 6.71, 50.73
0.5933, -0.26, -0.33, 0.97, -30.43, 6.40, 52.50
0.5967, -0.24, -0.32, 0.97, -30.24, 5.91, 54.27
0.6000, -0.24, -0.31, 0.96, -30.67, 5.24, 56.04
0.6033, -0.26, -0.30, 0.91, -31.28, 4.76, 57.99
0.6067, -0.25, -0.28, 0.98, -32.44, 4.51, 59.57
0.6100, -0.22, -0.28, 0.94, -34.27, 4.82, 61.22
0.6133, -0.19, -0.26, 0.92, -36.77, 5.61, 63.05
0.6167, -0.18, -0.24, 0.91, -40.00, 6.89, 64.63
0.6200, -0.15, -0.23, 0.89, -43.60, 8.72, 66.16
0.6233, -0.14, -0.24, 0.88, -47.56, 10.43, 67.20
0.6267, -0.12, -0.22, 0.89, -52.01, 12.50, 68.05
0.6300, -0.18, -0.27, 0.88, -56.59, 14.45, 68.60
0.6333, -0.14, -0.18, 0.95, -61.71, 16.04, 68.96
0.6367, -0.07, -0.25, 0.78, -66.71, 18.05, 69.27
0.6400, -0.12, -0.22, 0.87, -71.89, 19.39, 69.27
0.6433, -0.13, -0.24, 0.88, -76.71, 21.04, 69.09
0.6467, -0.16, -0.26, 0.89, -81.40, 22.68, 68.60
0.6500, -0.20, -0.28, 0.91, -86.04, 24.39, 68.48
0.6533, -0.22, -0.30, 0.94, -90.55, 26.04, 68.41
0.6567, -0.24, -0.32, 0.95, -94.94, 27.99, 68.60
0.6600, -0.25, -0.34, 0.96, -98.84, 29.82, 69.09
0.6633, -0.29, -0.36, 0.96, -102.50, 31.65, 70.24
0.6667, -0.31, -0.35, 0.96, -105.85, 33.23, 71.83
0.6700, -0.33, -0.38, 0.94, -108.72, 34.45, 74.15
0.6733, -0.35, -0.39, 0.94, -111.40, 35.12, 77.20
0.6767, -0.37, -0.41, 0.96, -113.78, 35.24, 80.73
0.6800, -0.37, -0.42, 0.95, -115.98, 34.94, 84.63
0.6833, -0.40, -0.42, 0.92, -118.05, 34.39, 88.96
0.6867, -0.40, -0.42, 0.92, -120.12, 33.35, 93.11
0.6900, -0.38, -0.41, 0.91, -122.13, 32.13, 97.26
0.6933, -0.37, -0.36, 0.93, -124.15, 30.61, 101.22
0.6967, -0.35, -0.38, 0.90, -125.98, 28.96, 104.57
0.7000, -0.04, -0.27, -1.37, -57.74, 55.37, 6.28
0.7033, -2.00, -0.75, -0.19, -61.28, 100.85, 16.89
0.7067, -1.93, -0.79, -0.36, -72.93, 35.00, 22.62
0.7100, -1.65, -1.03, 0.07, -77.62, -17.62, 42.68
0.7133, -1.17, -1.18, 0.09, -73.48, -47.44, 61.34
0.7167, -0.53, -0.93, -0.15, -64.02, -59.70, 76.04
0.7200, -0.34, -0.97, 0.18, -57.44, -62.01, 85.91
0.7233, -0.25, -0.80, -0.14, -52.80, -61.16, 89.39
0.7267, -2.00, 1.41, 1.61, -55.49, -61.40, 88.17
0.7300, -0.69, -1.06, -0.22, -76.04, -78.84, 88.35
0.7333, -0.22, -0.60, -0.11, -97.32, -77.99, 89.88
0.7367, 0.13, 0.05, 0.42, -100.98, -77.01, 77.01
0.7400, -0.05, -0.83, 0.15, -108.29, -75.37, 59.88
0.7433, 0.32, -0.72, -0.01, -117.62, -64.63, 52.38
0.7467, -0.30, -0.68, -0.17, -111.95, -58.35, 40.49
0.7500, -0.46, -0.63, 0.01, -102.93, -50.55, 30.37
0.7533, -0.53, -0.68, -0.08, -105.37, -44.45, 26.10
0.7567, -0.60, -0.75, 0.19, -108.72, -47.20, 20.18
0.7600, -0.49, -0.73, 0.19, -102.56, -50.24, 10.43
0.7633, -0.57, -0.72, 0.06, -100.43, -50.73, 2.99
0.7667, -0.53, -0.90, 0.30, -100.18, -51.22, -2.74
0.7700, -0.72, -1.08, 0.31, -94.51, -52.68, -10.06
0.7733, -0.70, -1.10, 0.38, -88.96, -57.26, -16.22
0.7767, -0.74, -1.19, 0.50, -84.27, -62.80, -19.51
0.7800, -0.82, -1.28, 0.63, -74.33, -63.48, -21.59
0.7833, -0.91, -1.29, 0.67, -61.04, -59.33, -22.68
0.7867, -0.65, -1.21, 0.62, -49.15, -50.61, -20.79
0.7900, -0.60, -1.05, 0.29, -38.84, -43.96, -18.48
0.7933, -0.28, -0.84, 0.37, -28.11, -37.50, -14.51
0.7967, 0.03, -0.75, 0.11, -25.55, -28.05, -10.06
0.8000, -0.33, -0.77, 0.13, -22.13, -9.94, -3.48
0.8033, -0.54, -0.51, 0.23, -19.76, 8.05, 2.44
0.8067, -0.60, -0.55, 0.08, -21.52, 17.74, 6.22
0.8100, -0.61, -0.55, 0.07, -26.95, 17.93, 10.37
0.8133, -0.65, -0.60, 0.15, -35.49, 16.04, 13.90
0.8167, -0.44, -0.68, 0.26, -43.05, 15.18, 17.20
0.8200, -0.50, -0.78, 0.43, -47.44, 16.40, 18.72
0.8233, -0.56, -0.72, 0.24, -50.06, 19.15, 18.84
0.8267, -0.59, -0.68, 0.26, -52.26, 20.18, 18.90
0.8300, -0.56, -0.66, 0.19, -55.24, 18.66, 19.09
0.8333, -0.60, -0.68, 0.21, -59.15, 16.04, 18.11
0.8367, -0.52, -0.66, 0.28, -64.82, 13.05, 15.55
0.8400, -0.48, -0.72, 0.22, -69.57, 11.10, 12.56
0.8433, -0.50, -0.69, 0.26, -72.80, 10.00, 8.66
0.8467, -0.52, -0.73, 0.19, -74.63, 8.05, 4.57
0.8500, -0.57, -0.78, 0.19, -74.76, 5.12, 0.12
0.8533, -0.44, -0.67, 0.11, -72.50, 1.40, -3.78
0.8567, -0.62, -0.74, 0.03, -67.99, -0.49, -6.59
0.8600, -0.55, -0.80, 0.02, -67.01, -4.02, -7.99
0.8633, -0.51, -0.84, 0.04, -65.43, -9.27, -8.72
0.8667, -0.51, -0.84, 0.01, -62.32, -13.90, -10.55
0.8700, -0.51, -0.83, 0.02, -59.45, -17.50, -11.89
0.8733, -0.48, -0.96, 0.11, -56.52, -19.51, -12.38
0.8767, -0.55, -0.85, -0.08, -51.22, -21.10, -12.80
0.8800, -0.60, -0.81, 0.00, -45.24, -23.54, -13.96
0.8833, -0.64, -0.92, 0.04, -40.49, -25.18, -13.17
0.8867, -0.57, -0.91, -0.07, -35.43, -26.89, -11.22
0.8900, -0.58, -0.87, -0.00, -29.09, -28.96, -9.09
0.8933, -0.55, -0.99, -0.10, -24.63, -30.55, -6.71
0.8967, -0.52, -0.98, -0.04, -21.40, -32.74, -3.23
0.9000, -0.56, -0.91, -0.02, -16.95, -34.70, 0.85
0.9033, -0.58, -0.89, -0.01, -11.59, -35.12, 3.90
0.9067, -0.58, -0.95, 0.02, -8.35, -34.94, 6.83
0.9100, -0.58, -0.97, 0.02, -4.88, -34.02, 9.45
0.9133, -0.56, -0.89, 0.03, -0.98, -33.35, 11.83
0.9167, -0.55, -0.92, 0.04, 2.07, -32.74, 13.96
0.9200, -0.59, -0.89, 0.06, 4.21, -32.01, 15.24
0.9233, -0.51, -0.89, 0.12, 5.98, -31.46, 15.91
0.9267, -0.65, -0.86, 0.03, 8.35, -30.73, 15.98
0.9300, -0.60, -0.84, 0.05, 9.09, -29.09, 15.49
0.9333, -0.64, -0.84, 0.00, 8.11, -28.05, 15.30
0.9367, -0.61, -0.85, -0.02, 7.99, -28.29, 14.33
0.9400, -0.60, -0.86, 0.00, 5.73, -29.21, 13.41
0.9433, -0.62, -0.89, -0.02, 3.05, -30.30, 12.74
0.9467, -0.61, -0.88, -0.01, 0.91, -31.71, 11.95
0.9500, -0.85, -1.03, 0.04, -0.67, -33.41, 11.10
0.9533, -0.58, -0.90, 0.08, 4.09, -31.40, 12.26
0.9567, -0.65, -0.82, 0.14, 9.27, -27.62, 11.71
0.9600, -0.71, -0.86, 0.15, 13.78, -26.34, 14.33
0.9633, -0.72, -0.89, 0.16, 20.67, -25.67, 16.28
0.9667, -0.65, -0.93, 0.19, 25.30, -26.04, 17.44
0.9700, -0.65, -0.84, 0.13, 25.79, -27.87, 19.15
0.9733, -0.62, -0.92, 0.29, 24.51, -29.15, 19.51
0.9767, -0.67, -0.88, 0.27, 22.87, -30.67, 20.73
0.9800, -0.67, -0.82, 0.25, 20.55, -31.46, 22.74
0.9833, -0.73, -0.87, 0.26, 17.93, -31.65, 25.37
0.9867, -0.72, -0.89, 0.21, 16.16, -31.71, 28.66
0.9900, -0.68, -0.84, 0.20, 15.61, -31.95, 31.77
0.9933, -0.67, -0.81, 0.25, 16.28, -32.32, 34.57
0.9967, -0.66, -0.83, 0.29, 17.07, -32.44, 35.91
1.0000, -0.73, -0.88, 0.34, 17.68, -31.95, 35.73
1.0033, -0.96, -0.52, 0.51, 18.11, -31.40, 35.00
1.0067, -1.10, -0.69, 0.32, 19.09, -30.91, 31.04
1.0100, -0.60, -0.33, 0.34, 19.39, -33.29, 27.93
1.0133, -0.87, -0.85, 0.24, 16.59, -36.16, 23.96
1.0167, -1.06, -0.81, 0.53, 15.18, -37.20, 18.35
1.0200, -1.16, -0.77, 0.46, 12.87, -36.40, 15.91
1.0233, -0.56, -0.31, 0.25, 9.15, -30.49, 12.01
1.0267, -0.67, -0.46, 0.30, 7.99, -20.85, 8.05
1.0300, -0.91, -0.63, 0.43, 8.23, -13.29, 6.59
1.0333, -0.72, -0.69, 0.42, 9.15, -8.11, 5.37
1.0367, -0.78, -0.78, 0.32, 10.18, -4.63, 4.45
1.0400, -0.64, -0.92, 0.17, 11.04, -5.00, 3.72
1.0433, -0.62, -0.76, 0.25, 12.74, -7.20, 1.34
1.0467, -0.60, -0.74, 0.33, 14.51, -8.41, -1.95
1.0500, -0.60, -0.77, 0.31, 13.90, -8.78, -4.88
1.0533, -0.64, -0.71, 0.29, 13.29, -8.35, -7.68
1.0567, -0.63, -0.69, 0.27, 13.66, -7.68, -10.24
1.0600, -0.63, -0.71, 0.26, 12.07, -7.38, -11.59
1.0633, -0.61, -0.69, 0.25, 9.33, -7.07, -12.20
1.0667, -0.60, -0.67, 0.26, 6.52, -6.34, -12.26
1.0700, -0.59, -0.70, 0.23, 2.56, -5.73, -11.77
1.0733, -0.58, -0.71, 0.23, -1.65, -5.55, -10.98
1.0767, -0.57, -0.71, 0.24, -5.61, -5.98, -10.61
1.0800, -0.55, -0.74, 0.23, -10.30, -5.98, -10.37
1.0833, -0.54, -0.76, 0.25, -14.45, -5.49, -9.82
1.0867, -0.60, -0.75, 0.22, -17.13, -4.51, -9.45
1.0900, -0.62, -0.73, 0.19, -19.02, -3.29, -9.27
1.0933, -0.64, -0.77, 0.16, -21.95, -3.60, -8.78
1.0967, -0.62, -0.77, 0.16, -24.70, -5.18, -7.80
1.1000, -0.60, -0.75, 0.16, -27.01, -7.32, -6.83
1.1033, -0.57, -0.79, 0.17, -29.39, -9.94, -5.79
1.1067, -0.58, -0.82, 0.22, -31.34, -11.95, -4.76
1.1100, -0.55, -0.83, 0.22, -31.40, -12.87, -3.66
1.1133, -0.56, -0.83, 0.21, -30.55, -12.87, -2.20
1.1167, -0.59, -0.84, 0.21, -29.15, -12.13, -1.04
1.1200, -0.61, -0.84, 0.20, -27.01, -10.85, 0.43
1.1233, -0.60, -0.81, 0.18, -24.70, -9.94, 1.77
1.1267, -0.62, -0.77, 0.16, -22.68, -9.51, 2.87
1.1300, -0.64, -0.77, 0.19, -21.10, -9.45, 3.78
1.1333, -0.62, -0.79, 0.20, -20.91, -10.55, 4.76
1.1367, -0.57, -0.79, 0.23, -21.10, -11.40, 5.55
1.1400, -0.57, -0.80, 0.23, -20.37, -10.85, 5.37
1.1433, -0.57, -0.77, 0.20, -18.96, -9.27, 4.82
1.1467, -0.62, -0.75, 0.17, -17.01, -7.01, 3.66
1.1500, -0.62, -0.74, 0.16, -14.70, -4.82, 2.32
1.1533, -0.66, -0.73, 0.12, -12.93, -3.60, 0.73
1.1567, -0.66, -0.72, 0.09, -12.13, -3.35, -1.10
1.1600, -0.60, -0.69, 0.14, -11.71, -3.41, -3.23
1.1633, -0.61, -0.72, 0.14, -11.52, -3.66, -5.73
1.1667, -0.61, -0.73, 0.12, -11.22, -3.29, -8.29
1.1700, -0.62, -0.73, 0.12, -10.55, -3.05, -10.73
1.1733, -0.62, -0.75, 0.12, -10.00, -2.62, -13.17
1.1767, -0.62, -0.76, 0.11, -9.45, -2.38, -15.49
1.1800, -0.62, -0.77, 0.12, -8.84, -2.13, -17.32
1.1833, -0.62, -0.78, 0.11, -7.87, -2.01, -18.84
1.1867, -0.61, -0.79, 0.12, -6.89, -2.01, -20.00
1.1900, -0.60, -0.80, 0.12, -5.73, -2.20, -21.04
1.1933, -0.60, -0.81, 0.12, -4.39, -2.44, -21.46
1.1967, -0.59, -0.83, 0.12, -3.11, -2.50, -21.52
1.2000, -0.60, -0.84, 0.14, -1.77, -2.62, -21.34
1.2033, -0.60, -0.84, 0.15, -0.24, -2.32, -20.67
1.2067, -0.60, -0.85, 0.16, 1.65, -2.07, -19.88
1.2100, -0.60, -0.86, 0.16, 3.29, -1.83, -18.90
1.2133, -0.60, -0.86, 0.15, 5.00, -1.77, -17.68
1.2167, -0.60, -0.87, 0.16, 6.34, -1.65, -16.46
1.2200, -0.60, -0.87, 0.17, 7.56, -1.59, -15.12
1.2233, -0.60, -0.87, 0.17, 8.48, -1.34, -13.48
1.2267, -0.60, -0.85, 0.17, 8.96, -1.22, -11.83
1.2300, -0.60, -0.86, 0.15, 9.21, -1.28, -10.12
1.2333, -0.60, -0.84, 0.14, 9.02, -1.34, -8.41
1.2367, -0.60, -0.84, 0.15, 8.66, -1.83, -6.65
1.2400, -0.59, -0.85, 0.15, 7.99, -2.56, -4.82
1.2433, -0.59, -0.83, 0.14, 7.13, -3.41, -3.29
1.2467, -0.59, -0.83, 0.14, 6.22, -3.96, -1.83
1.2500, -0.60, -0.82, 0.15, 5.24, -4.39, -0.49
1.2533, -0.59, -0.82, 0.14, 4.02, -4.88, 0.67
1.2567, -0.60, -0.81, 0.13, 2.62, -5.18, 1.59
1.2600, -0.60, -0.79, 0.13, 0.91, -5.55, 2.13
1.2633, -0.59, -0.82, 0.13, -0.79, -6.28, 2.50
1.2667, -0.59, -0.83, 0.18, -2.07, -6.95, 2.56
1.2700, -0.63, -0.79, 0.15, -2.32, -6.77, 2.13
1.2733, -0.64, -0.77, 0.12, -2.74, -6.83, 1.28
1.2767, -0.64, -0.80, 0.11, -3.78, -7.44, 0.67
1.2800, -0.62, -0.77, 0.14, -4.51, -8.54, 0.30
1.2833, -0.61, -0.77, 0.12, -5.18, -9.82, -0.06
1.2867, -0.60, -0.79, 0.14, -6.59, -10.98, -0.55
1.2900, -0.58, -0.79, 0.16, -7.32, -11.59, -1.16
1.2933, -0.59, -0.78, 0.15, -7.13, -11.46, -1.89
1.2967, -0.59, -0.78, 0.14, -7.01, -11.28, -2.62
1.3000, -0.61, -0.78, 0.16, -6.46, -10.55, -3.35
1.3033, -0.60, -0.77, 0.16, -6.04, -9.94, -4.33
1.3067, -0.60, -0.78, 0.16, -5.30, -9.21, -5.00
1.3100, -0.60, -0.77, 0.18, -4.39, -8.54, -5.79
1.3133, -0.60, -0.79, 0.15, -3.35, -7.56, -6.59
1.3167, -0.60, -0.77, 0.16, -2.32, -6.40, -7.62
1.3200, -0.63, -0.78, 0.16, -1.52, -5.37, -8.54
1.3233, -0.64, -0.79, 0.16, -1.59, -4.94, -9.09
1.3267, -0.52, -0.75, 0.18, -2.44, -5.55, -9.57
1.3300, -0.49, -0.79, 0.21, -5.55, -5.43, -8.72
1.3333, -0.54, -0.74, 0.20, -10.79, -4.45, -6.65
1.3367, -0.57, -0.84, 0.32, -17.20, -3.41, -4.27
1.3400, -0.62, -0.90, 0.23, -23.60, -1.77, -1.65
1.3433, -0.63, -0.94, 0.22, -26.10, -2.26, 0.37
1.3467, -0.63, -0.93, 0.26, -26.10, -3.60, 0.98
1.3500, -0.64, -0.94, 0.15, -25.18, -2.44, 1.22
1.3533, -0.69, -0.99, 0.12, -22.56, -1.52, 1.28
1.3567, -0.58, -1.01, 0.20, -17.68, -1.34, 1.95
1.3600, -0.67, -0.87, 0.12, -10.91, -0.79, 1.89
1.3633, -0.72, -0.79, 0.30, -3.84, -0.12, -0.85
1.3667, -0.77, -0.83, 0.11, -0.61, 0.73, -3.41
1.3700, -0.73, -0.69, 0.17, -0.43, 1.10, -5.18
1.3733, -0.57, -0.70, 0.20, -1.22, 1.52, -3.66
1.3767, -0.57, -0.76, 0.22, -2.68, 1.89, -1.89
1.3800, -0.53, -0.75, 0.18, -4.15, 1.65, -2.20
1.3833, -0.62, -0.80, 0.22, -4.88, 1.46, -3.66
1.3867, -0.63, -0.81, 0.15, -4.09, 1.89, -5.06
1.3900, -0.62, -0.74, 0.16, -3.05, 2.38, -5.06
1.3933, -0.62, -0.73, 0.17, -2.07, 2.44, -4.63
1.3967, -0.59, -0.73, 0.18, -1.52, 2.38, -4.02
1.4000, -0.58, -0.78, 0.17, -2.01, 2.38, -3.29
1.4033, -0.60, -0.78, 0.14, -1.83, 2.44, -2.99
1.4067, -0.60, -0.77, 0.16, -0.91, 2.32, -2.62
1.4100, -0.59, -0.79, 0.15, -0.85, 2.13, -2.56
1.4133, -0.60, -0.78, 0.17, -0.73, 1.89, -2.13
1.4167, -0.60, -0.77, 0.14, -0.12, 1.65, -2.07
1.4200, -0.61, -0.78, 0.16, 0.06, 0.98, -1.83
1.4233, -0.60, -0.77, 0.15, -0.24, 0.00, -1.46
1.4267, -0.59, -0.75, 0.16, -0.49, -0.91, -1.10
1.4300, -0.59, -0.76, 0.15, -1.28, -1.65, -0.79
1.4333, -0.58, -0.78, 0.18, -2.62, -2.20, -0.43
1.4367, -0.60, -0.80, 0.16, -3.29, -2.56, 0.06
1.4400, -0.60, -0.79, 0.15, -3.23, -2.93, 0.24
1.4433, -0.60, -0.81, 0.16, -3.29, -3.23, 0.18
1.4467, -0.61, -0.81, 0.14, -3.35, -3.66, 0.37
1.4500, -0.60, -0.79, 0.16, -3.48, -3.84, 0.43
1.4533, -0.58, -0.80, 0.15, -3.41, -3.96, 0.43
1.4567, -0.59, -0.81, 0.16, -3.29, -4.15, 0.49
1.4600, -0.60, -0.80, 0.16, -3.17, -4.02, 0.24
1.4633, -0.59, -0.79, 0.17, -2.74, -3.72, 0.18
1.4667, -0.59, -0.79, 0.17, -2.26, -3.23, 0.06
1.4700, -0.61, -0.79, 0.16, -1.89, -2.74, 0.06
1.4733, -0.61, -0.78, 0.16, -1.52, -2.20, 0.18
1.4767, -0.61, -0.78, 0.16, -0.98, -2.01, 0.30
1.4800, -0.59, -0.77, 0.16, -0.61, -1.89, 0.30
1.4833, -0.59, -0.77, 0.17, -0.18, -1.83, 0.49
1.4867, -0.59, -0.77, 0.17, 0.24, -1.59, 0.37
1.4900, -0.60, -0.77, 0.16, 0.43, -1.46, 0.24
1.4933, -0.59, -0.76, 0.16, 0.79, -1.22, 0.18
1.4967, -0.60, -0.76, 0.17, 1.16, -1.16, 0.06
1.5000, -0.61, -0.81, 0.15, 6.10, -0.43, -3.48
1.5033, -0.60, -0.79, 0.16, 6.40, -0.37, -3.60
1.5067, -0.59, -0.79, 0.15, 6.52, -0.37, -3.84
1.5100, -0.59, -0.79, 0.15, 6.16, -0.55, -3.90
1.5133, -0.60, -0.78, 0.14, 5.73, -0.73, -3.96
1.5167, -0.60, -0.77, 0.13, 5.06, -1.10, -4.02
1.5200, -0.60, -0.77, 0.15, 4.33, -1.46, -4.21
1.5233, -0.61, -0.77, 0.13, 3.29, -2.01, -4.33
1.5267, -0.60, -0.77, 0.16, 2.44, -2.20, -4.39
1.5300, -0.60, -0.78, 0.16, 1.59, -2.80, -4.57
1.5333, -0.60, -0.78, 0.15, 0.79, -3.23, -4.57
1.5367, -0.59, -0.79, 0.16, 0.06, -3.35, -4.45
1.5400, -0.59, -0.80, 0.17, -0.43, -3.48, -4.33
1.5433, -0.59, -0.79, 0.16, -0.85, -3.48, -4.21
1.5467, -0.60, -0.79, 0.17, -1.34, -3.29, -3.96
1.5500, -0.58, -0.81, 0.19, -1.65, -3.23, -3.66
1.5533, -0.59, -0.81, 0.16, -1.89, -2.80, -3.48
1.5567, -0.59, -0.79, 0.17, -2.13, -2.07, -3.17
1.5600, -0.60, -0.80, 0.15, -2.56, -1.40, -2.99
1.5633, -0.60, -0.80, 0.15, -3.29, -1.28, -2.56
1.5667, -0.60, -0.79, 0.14, -4.02, -1.59, -2.13
1.5700, -0.58, -0.79, 0.15, -5.00, -2.07, -1.95
1.5733, -0.58, -0.81, 0.15, -5.73, -2.20, -2.07
1.5767, -0.59, -0.81, 0.15, -6.28, -2.13, -2.13
1.5800, -0.59, -0.80, 0.17, -6.71, -1.89, -2.13
1.5833, -0.59, -0.81, 0.17, -6.95, -1.77, -2.01
1.5867, -0.60, -0.81, 0.17, -7.44, -1.52, -1.89
1.5900, -0.59, -0.83, 0.17, -7.68, -1.34, -1.89
1.5933, -0.59, -0.83, 0.17, -7.56, -1.40, -1.95
1.5967, -0.59, -0.82, 0.17, -6.59, -1.40, -2.13
1.6000, -0.59, -0.82, 0.15, -5.49, -0.91, -2.32
1.6033, -0.60, -0.82, 0.18, -4.33, -0.24, -2.50
1.6067, -0.59, -0.81, 0.17, -3.29, 0.43, -2.56
1.6100, -0.59, -0.81, 0.16, -2.20, 0.79, -2.62
1.6133, -0.56, -0.75, 0.17, -1.40, 1.16, -2.26
1.6167, -0.60, -0.79, 0.23, -2.99, 1.46, -1.10
1.6200, -0.58, -0.78, 0.20, -3.72, 1.77, 0.06
1.6233, -0.59, -0.77, 0.17, -3.84, 1.95, 0.91
1.6267, -0.60, -0.79, 0.17, -4.09, 1.71, 1.52
1.6300, -0.59, -0.79, 0.19, -3.90, 1.22, 1.34
1.6333, -0.58, -0.78, 0.17, -3.17, 1.04, 0.79
1.6367, -0.60, -0.79, 0.16, -2.20, 0.98, 0.37
1.6400, -0.60, -0.78, 0.18, -1.52, 1.10, 0.06
1.6433, -0.58, -0.76, 0.17, -0.73, 1.59, 0.12
1.6467, -0.60, -0.71, 0.14, -0.18, 2.13, 0.06
1.6500, -0.59, -0.76, 0.17, -0.61, 2.26, 0.18
1.6533, -0.58, -0.81, 0.18, -2.26, 2.07, 0.91
1.6567, -0.60, -0.81, 0.17, -2.74, 1.46, 1.65
1.6600, -0.59, -0.80, 0.15, -2.68, 0.73, 2.07
1.6633, -0.59, -0.81, 0.15, -2.80, -0.18, 1.95
1.6667, -0.60, -0.80, 0.16, -2.99, -0.79, 1.77
1.6700, -0.60, -0.78, 0.15, -2.93, -1.16, 1.71
1.6733, -0.60, -0.79, 0.16, -3.29, -1.71, 1.46
1.6767, -0.59, -0.80, 0.15, -3.78, -2.01, 1.16
1.6800, -0.61, -0.80, 0.15, -3.96, -2.20, 0.61
1.6833, -0.60, -0.79, 0.15, -3.96, -2.20, 0.12
1.6867, -0.58, -0.79, 0.14, -4.02, -2.20, -0.18
1.6900, -0.58, -0.79, 0.15, -4.09, -2.13, -0.24
1.6933, -0.59, -0.78, 0.15, -4.21, -2.20, -0.12
1.6967, -0.58, -0.78, 0.17, -4.57, -2.07, -0.30
1.7000, -0.58, -0.78, 0.17, -4.51, -2.07, -0.55
1.7033, -0.59, -0.78, 0.18, -4.33, -2.01, -0.79
1.7067, -0.58, -0.78, 0.17, -4.15, -1.65, -0.91
1.7100, -0.59, -0.77, 0.18, -3.72, -1.40, -0.73
1.7133, -0.58, -0.77, 0.19, -3.41, -1.22, -0.37
1.7167, -0.57, -0.78, 0.17, -2.93, -0.91, -0.24
1.7200, -0.57, -0.77, 0.17, -2.56, -0.43, -0.06
1.7233, -0.57, -0.78, 0.20, -1.89, 0.06, 0.43
1.7267, -0.57, -0.79, 0.19, -1.22, 0.55, 0.73
1.7300, -0.58, -0.79, 0.19, -0.43, 1.22, 0.91
1.7333, -0.59, -0.80, 0.19, 0.55, 1.71, 0.98
1.7367, -0.59, -0.81, 0.17, 1.34, 2.01, 1.04
1.7400, -0.59, -0.79, 0.18, 1.77, 1.89, 0.98
1.7433, -0.61, -0.79, 0.15, 2.62, 1.52, 0.98
1.7467, -0.60, -0.80, 0.14, 3.05, 0.61, 1.04
1.7500, -0.58, -0.81, 0.16, 3.48, -0.49, 0.91
1.7533, -0.56, -0.81, 0.19, 4.45, -0.43, 0.24
1.7567, -0.59, -0.81, 0.16, 5.43, 0.06, -0.43
1.7600, -0.61, -0.79, 0.17, 6.22, 0.43, -0.61
1.7633, -0.62, -0.77, 0.16, 6.52, 0.98, -0.37
1.7667, -0.62, -0.79, 0.15, 6.04, 1.16, -0.37
1.7700, -0.60, -0.79, 0.17, 5.37, 1.04, -0.55
1.7733, -0.61, -0.79, 0.17, 5.12, 0.30, -0.79
1.7767, -0.60, -0.79, 0.15, 4.82, -0.37, -0.91
1.7800, -0.59, -0.79, 0.15, 4.63, -0.91, -1.10
1.7833, -0.59, -0.78, 0.15, 4.21, -0.79, -1.22
1.7867, -0.59, -0.78, 0.16, 3.96, -0.98, -1.28
1.7900, -0.59, -0.78, 0.15, 3.78, -1.10, -1.16
1.7933, -0.60, -0.76, 0.14, 3.66, -1.16, -1.22
1.7967, -0.59, -0.78, 0.15, 3.78, -1.34, -1.04
1.8000, -0.58, -0.79, 0.16, 3.66, -1.65, -0.98
1.8033, -0.59, -0.79, 0.16, 3.78, -1.77, -1.10
1.8067, -0.60, -0.78, 0.15, 4.02, -1.59, -1.10
1.8100, -0.60, -0.78, 0.13, 4.45, -1.52, -1.28
1.8133, -0.60, -0.79, 0.15, 4.33, -1.83, -1.22
1.8167, -0.59, -0.77, 0.15, 3.78, -2.01, -1.10
1.8200, -0.58, -0.78, 0.17, 3.17, -2.56, -1.10
1.8233, -0.58, -0.79, 0.18, 2.50, -2.87, -1.10
1.8267, -0.59, -0.79, 0.18, 2.01, -2.56, -1.16
1.8300, -0.58, -0.79, 0.18, 1.77, -2.26, -1.04
1.8333, -0.59, -0.80, 0.17, 1.77, -1.77, -0.85
1.8367, -0.59, -0.80, 0.18, 2.13, -1.16, -0.79
1.8400, -0.59, -0.79, 0.16, 2.44, -0.73, -0.73
1.8433, -0.58, -0.80, 0.17, 2.62, -0.30, -0.67
1.8467, -0.59, -0.81, 0.17, 2.74, 0.18, -0.55
1.8500, -0.59, -0.80, 0.16, 2.99, 0.49, -0.43
1.8533, -0.60, -0.82, 0.16, 3.35, 0.79, -0.55
1.8567, -0.59, -0.80, 0.15, 3.48, 0.79, -0.61
1.8600, -0.60, -0.78, 0.14, 3.66, 0.67, -0.67
1.8633, -0.59, -0.79, 0.14, 3.66, 0.49, -0.79
1.8667, -0.60, -0.81, 0.16, 3.60, 0.12, -0.67
1.8700, -0.60, -0.80, 0.15, 3.23, -0.18, -0.73
1.8733, -0.59, -0.80, 0.16, 3.29, -0.61, -0.73
1.8767, -0.59, -0.81, 0.14, 3.05, -0.85, -0.79
1.8800, -0.60, -0.81, 0.15, 2.62, -0.91, -0.73
1.8833, -0.60, -0.80, 0.15, 2.38, -0.98, -0.49
1.8867, -0.60, -0.81, 0.15, 2.26, -1.28, -0.43
1.8900, -0.60, -0.80, 0.16, 2.07, -1.52, -0.43
1.8933, -0.59, -0.80, 0.16, 1.83, -1.65, -0.24
1.8967, -0.59, -0.80, 0.16, 1.65, -1.83, 0.00
1.9000, -0.60, -0.80, 0.18, 1.46, -1.65, 0.12
1.9033, -0.60, -0.79, 0.16, 1.22, -1.40, 0.43
1.9067, -0.58, -0.78, 0.15, 1.10, -0.91, 0.73
1.9100, -0.59, -0.78, 0.15, 0.67, -0.67, 1.04
1.9133, -0.59, -0.79, 0.15, 0.12, -0.67, 1.28
1.9167, -0.59, -0.78, 0.16, -0.30, -0.73, 1.34
1.9200, -0.59, -0.78, 0.14, -0.67, -0.85, 1.40
1.9233, -0.58, -0.78, 0.16, -0.85, -0.79, 1.16
1.9267, -0.59, -0.78, 0.16, -0.98, -0.73, 0.91
1.9300, -0.59, -0.78, 0.15, -0.91, -0.73, 0.67
1.9333, -0.59, -0.78, 0.15, -0.91, -0.67, 0.37
1.9367, -0.60, -0.78, 0.15, -0.85, -0.49, 0.00
1.9400, -0.58, -0.79, 0.15, -0.85, -0.37, -0.18
1.9433, -0.59, -0.80, 0.16, -0.98, -0.24, -0.43
1.9467, -0.58, -0.81, 0.14, -1.04, -0.37, -0.43
1.9500, -0.59, -0.81, 0.15, -0.91, -0.61, 0.00
1.9533, -0.59, -0.82, 0.16, -0.55, -0.91, 0.18
1.9567, -0.59, -0.84, 0.16, 0.00, -1.16, 0.49
1.9600, -0.59, -0.82, 0.16, 0.49, -1.40, 0.79
1.9633, -0.59, -0.82, 0.16, 1.16, -1.16, 1.10
1.9667, -0.59, -0.81, 0.16, 1.83, -0.85, 1.22
1.9700, -0.61, -0.81, 0.17, 2.38, -0.55, 1.40
1.9733, -0.60, -0.81, 0.16, 2.68, -0.12, 1.52
1.9767, -0.59, -0.80, 0.17, 3.11, 0.12, 1.77
1.9800, -0.60, -0.80, 0.14, 3.29, 0.06, 1.95
1.9833, -0.60, -0.80, 0.14, 3.48, 0.06, 1.95
1.9867, -0.60, -0.77, 0.15, 3.35, -0.06, 1.77
1.9900, -0.60, -0.77, 0.15, 3.05, -0.06, 1.46
1.9933, -0.59, -0.78, 0.15, 2.68, -0.06, 1.16
1.9967, -0.59, -0.79, 0.17, 2.38, 0.00, 1.10
2.0000, -0.59, -0.78, 0.17, 3.78, -1.22, 0.73
2.0033, -0.58, -0.79, 0.16, 3.66, -1.28, 0.85
2.0067, -0.60, -0.79, 0.16, 3.54, -1.28, 1.04
2.0100, -0.59, -0.79, 0.16, 3.41, -1.10, 1.10
2.0133, -0.60, -0.79, 0.16, 3.35, -1.10, 1.28
2.0167, -0.60, -0.78, 0.15, 3.23, -1.22, 1.46
2.0200, -0.60, -0.78, 0.17, 3.05, -1.22, 1.59
2.0233, -0.60, -0.78, 0.16, 2.87, -1.34, 1.77
2.0267, -0.61, -0.77, 0.19, 2.68, -1.34, 1.95
2.0300, -0.60, -0.81, 0.16, 2.44, -1.34, 2.01
2.0333, -0.59, -0.81, 0.17, 1.89, -1.40, 2.07
2.0367, -0.59, -0.77, 0.18, 1.95, -1.77, 2.56
2.0400, -0.58, -0.78, 0.17, 2.07, -2.01, 2.68
2.0433, -0.57, -0.77, 0.16, 2.01, -1.95, 2.44
2.0467, -0.59, -0.77, 0.16, 1.95, -1.52, 2.01
2.0500, -0.59, -0.78, 0.17, 1.83, -1.28, 1.83
2.0533, -0.60, -0.79, 0.17, 1.77, -1.16, 1.59
2.0567, -0.58, -0.78, 0.15, 2.07, -1.16, 1.65
2.0600, -0.58, -0.77, 0.14, 2.68, -1.34, 1.71
2.0633, -0.58, -0.79, 0.16, 2.99, -1.59, 1.83
2.0667, -0.58, -0.79, 0.16, 3.05, -1.59, 1.95
2.0700, -0.59, -0.79, 0.15, 3.35, -1.59, 1.89
2.0733, -0.59, -0.79, 0.16, 3.60, -1.77, 1.89
2.0767, -0.59, -0.79, 0.18, 4.09, -1.83, 2.01
2.0800, -0.59, -0.79, 0.17, 4.09, -1.77, 2.20
2.0833, -0.59, -0.80, 0.17, 4.21, -1.83, 2.20
2.0867, -0.59, -0.79, 0.17, 4.33, -1.59, 2.20
2.0900, -0.59, -0.79, 0.16, 4.51, -1.40, 2.26
2.0933, -0.59, -0.80, 0.17, 4.70, -1.40, 2.20
2.0967, -0.59, -0.79, 0.17, 4.70, -1.28, 2.20
2.1000, -0.59, -0.79, 0.15, 4.76, -1.22, 2.13
2.1033, -0.59, -0.79, 0.14, 4.88, -1.40, 2.07
2.1067, -0.60, -0.80, 0.15, 5.00, -1.34, 2.01
2.1100, -0.60, -0.78, 0.16, 5.18, -1.71, 1.95
2.1133, -0.60, -0.78, 0.15, 5.06, -1.95, 1.83
2.1167, -0.60, -0.78, 0.16, 5.30, -2.20, 1.65
2.1200, -0.59, -0.79, 0.16, 5.49, -2.50, 1.59
2.1233, -0.60, -0.78, 0.16, 5.37, -2.80, 1.59
2.1267, -0.60, -0.78, 0.16, 5.30, -2.87, 1.34
2.1300, -0.60, -0.78, 0.16, 5.43, -2.99, 1.16
2.1333, -0.60, -0.77, 0.17, 5.37, -2.93, 1.16
2.1367, -0.60, -0.77, 0.16, 5.37, -2.99, 1.10
2.1400, -0.60, -0.78, 0.15, 5.12, -2.93, 1.04
2.1433, -0.59, -0.78, 0.17, 5.00, -2.80, 1.16
2.1467, -0.60, -0.79, 0.15, 4.82, -2.74, 1.22
2.1500, -0.59, -0.79, 0.17, 4.63, -2.62, 1.22
2.1533, -0.59, -0.78, 0.16, 4.51, -2.50, 1.40
2.1567, -0.59, -0.78, 0.16, 4.33, -2.38, 1.52
2.1600, -0.59, -0.78, 0.15, 4.09, -2.32, 1.65
2.1633, -0.59, -0.77, 0.16, 3.96, -2.44, 1.77
2.1667, -0.58, -0.77, 0.14, 3.66, -2.50, 1.89
2.1700, -0.59, -0.78, 0.16, 3.17, -2.50, 1.77
2.1733, -0.59, -0.77, 0.15, 2.74, -2.62, 1.59
2.1767, -0.59, -0.78, 0.16, 2.44, -2.87, 1.40
2.1800, -0.59, -0.77, 0.14, 2.38, -3.17, 1.34
2.1833, -0.60, -0.78, 0.15, 2.26, -3.29, 1.10
2.1867, -0.59, -0.78, 0.17, 2.13, -3.48, 0.79
2.1900, -0.59, -0.78, 0.16, 2.20, -3.41, 0.49
2.1933, -0.60, -0.78, 0.16, 2.38, -3.48, 0.43
2.1967, -0.60, -0.78, 0.15, 2.38, -3.41, -0.06
2.2000, -0.59, -0.79, 0.16, 2.44, -3.17, -0.30
2.2033, -0.60, -0.79, 0.15, 2.56, -3.05, -0.49
2.2067, -0.59, -0.78, 0.16, 2.62, -2.99, -0.67
2.2100, -0.59, -0.79, 0.18, 2.62, -2.99, -0.91
2.2133, -0.59, -0.79, 0.17, 2.32, -2.99, -1.10
2.2167, -0.59, -0.79, 0.17, 2.26, -2.99, -1.22
2.2200, -0.59, -0.80, 0.18, 2.20, -3.05, -1.46
2.2233, -0.59, -0.79, 0.16, 1.95, -3.17, -1.71
2.2267, -0.59, -0.80, 0.18, 1.89, -2.99, -2.01
2.2300, -0.59, -0.79, 0.17, 2.01, -2.87, -2.38
2.2333, -0.59, -0.79, 0.16, 2.07, -2.68, -2.56
2.2367, -0.59, -0.79, 0.18, 2.20, -2.38, -2.68
2.2400, -0.59, -0.79, 0.16, 2.20, -2.01, -2.56
2.2433, -0.58, -0.79, 0.18, 2.13, -1.95, -2.62
2.2467, -0.59, -0.79, 0.18, 2.13, -2.01, -2.80
2.2500, -0.59, -0.80, 0.19, 2.13, -2.07, -2.99
2.2533, -0.59, -0.80, 0.18, 2.01, -2.07, -2.99
2.2567, -0.59, -0.79, 0.18, 1.95, -1.95, -2.87
2.2600, -0.60, -0.79, 0.18, 2.01, -1.83, -2.80
2.2633, -0.60, -0.79, 0.18, 2.01, -1.59, -2.87
2.2667, -0.60, -0.79, 0.18, 1.95, -1.22, -2.80
2.2700, -0.59, -0.80, 0.18, 1.83, -1.16, -2.74
2.2733, -0.58, -0.80, 0.16, 1.65, -1.16, -2.62
2.2767, -0.58, -0.80, 0.17, 1.46, -1.28, -2.44
2.2800, -0.59, -0.80, 0.16, 0.98, -1.22, -2.32
2.2833, -0.59, -0.79, 0.17, 0.67, -1.34, -2.26
2.2867, -0.59, -0.79, 0.16, 0.37, -1.59, -2.01
2.2900, -0.59, -0.79, 0.17, 0.00, -1.65, -1.83
2.2933, -0.60, -0.80, 0.18, -0.24, -1.77, -1.71
2.2967, -0.60, -0.80, 0.17, -0.24, -1.89, -1.65
2.3000, -0.60, -0.80, 0.18, -0.49, -2.01, -1.59
2.3033, -0.59, -0.80, 0.17, -0.37, -1.89, -1.65
2.3067, -0.60, -0.79, 0.17, -0.18, -1.89, -1.65
2.3100, -0.59, -0.80, 0.17, -0.06, -1.89, -1.52
2.3133, -0.60, -0.79, 0.18, -0.18, -1.77, -1.52
2.3167, -0.59, -0.79, 0.17, -0.06, -1.52, -1.59
2.3200, -0.59, -0.79, 0.16, 0.12, -1.52, -1.71
2.3233, -0.60, -0.79, 0.16, 0.24, -1.40, -1.59
2.3267, -0.59, -0.79, 0.17, 0.30, -1.52, -1.52
2.3300, -0.58, -0.78, 0.18, 0.24, -1.71, -1.65
2.3333, -0.58, -0.79, 0.16, 0.18, -1.89, -1.59
2.3367, -0.59, -0.78, 0.17, 0.37, -1.89, -1.40
2.3400, -0.59, -0.78, 0.18, 0.43, -1.95, -1.40
2.3433, -0.58, -0.78, 0.17, 0.43, -2.01, -1.40
2.3467, -0.60, -0.79, 0.17, 0.37, -2.01, -1.28
2.3500, -0.59, -0.79, 0.18, 0.43, -1.95, -1.40
2.3533, -0.59, -0.78, 0.17, 0.61, -1.89, -1.28
2.3567, -0.60, -0.80, 0.17, 0.67, -1.95, -1.16
2.3600, -0.60, -0.79, 0.18, 0.67, -1.83, -1.04
2.3633, -0.59, -0.80, 0.18, 0.61, -1.65, -0.79
2.3667, -0.42, -0.69, 0.00, 0.73, -1.59, -0.61
2.3700, -0.62, -0.77, 0.17, 1.34, -1.52, -0.30
2.3733, -0.59, -0.79, 0.19, 0.55, -1.40, -0.24
2.3767, -0.59, -0.78, 0.21, 0.12, -1.46, 0.06
2.3800, -0.59, -0.78, 0.19, 0.37, -1.34, 0.12
2.3833, -0.59, -0.79, 0.17, 0.30, -1.46, 0.37
2.3867, -0.59, -0.80, 0.17, 0.30, -1.46, 0.37
2.3900, -0.59, -0.78, 0.19, 0.61, -1.28, 0.49
2.3933, -0.58, -0.78, 0.16, 0.67, -1.16, 0.37
2.3967, -0.59, -0.78, 0.17, 0.98, -1.16, 0.37
2.4000, -0.59, -0.78, 0.18, 1.52, -1.16, 0.24
2.4033, -0.58, -0.79, 0.17, 1.71, -1.16, 0.12
2.4067, -0.59, -0.79, 0.19, 1.95, -1.34, 0.18
2.4100, -0.59, -0.79, 0.18, 2.32, -1.34, 0.12
2.4133, -0.59, -0.79, 0.16, 2.50, -1.40, 0.12
2.4167, -0.58, -0.79, 0.17, 2.50, -1.52, 0.06
2.4200, -0.59, -0.78, 0.17, 2.56, -1.65, 0.24
2.4233, -0.59, -0.79, 0.17, 2.56, -1.71, 0.18
2.4267, -0.59, -0.79, 0.19, 2.62, -1.59, 0.12
2.4300, -0.59, -0.79, 0.18, 2.50, -1.77, -0.06
2.4333, -0.59, -0.79, 0.19, 2.44, -1.95, -0.12
2.4367, -0.59, -0.79, 0.18, 2.32, -1.77, -0.12
2.4400, -0.59, -0.79, 0.18, 2.26, -1.46, -0.12
2.4433, -0.59, -0.79, 0.17, 2.32, -1.28, -0.06
2.4467, -0.58, -0.79, 0.17, 2.26, -1.16, 0.12
2.4500, -0.59, -0.80, 0.18, 2.32, -1.04, 0.18
2.4533, -0.60, -0.79, 0.19, 2.50, -1.04, 0.30
2.4567, -0.59, -0.79, 0.19, 2.50, -0.85, 0.43
2.4600, -0.58, -0.74, 0.21, 2.56, -0.61, 0.49
2.4633, -0.60, -0.78, 0.18, 2.44, 0.00, 0.24
2.4667, -0.60, -0.79, 0.20, 1.89, 0.43, 0.06
2.4700, -0.59, -0.78, 0.16, 1.10, 0.61, 0.24
2.4733, -0.59, -0.80, 0.18, 0.98, 0.49, 0.30
2.4767, -0.60, -0.80, 0.17, 1.10, 0.30, 0.24
2.4800, -0.61, -0.80, 0.13, 2.13, 0.18, -0.06
2.4833, -0.59, -0.78, 0.13, 4.21, -0.12, -0.61
2.4867, -0.60, -0.80, 0.11, 5.67, -0.24, -0.73
2.4900, -0.59, -0.76, 0.20, 5.55, 0.18, -1.34
2.4933, -0.58, -0.75, 0.17, 4.88, 0.85, -2.50
2.4967, -0.60, -0.77, 0.16, 4.63, 1.04, -3.78
2.5000, -0.60, -0.75, 0.17, 4.27, 0.30, -4.33
2.5033, -0.61, -0.78, 0.19, 3.35, -0.49, -4.63
2.5067, -0.59, -0.80, 0.18, 3.23, -1.04, -4.94
2.5100, -0.59, -0.77, 0.17, 3.41, -1.34, -5.30
2.5133, -0.58, -0.77, 0.19, 3.60, -1.04, -5.55
2.5167, -0.58, -0.79, 0.19, 3.48, -0.18, -5.73
2.5200, -0.58, -0.80, 0.19, 3.72, 0.43, -5.67
2.5233, -0.59, -0.78, 0.20, 3.96, 0.73, -5.30
2.5267, -0.60, -0.80, 0.21, 3.90, 0.91, -5.06
2.5300, -0.58, -0.80, 0.21, 3.78, 1.22, -4.63
2.5333, -0.58, -0.79, 0.21, 3.54, 1.46, -4.15
2.5367, -0.59, -0.80, 0.19, 3.41, 1.59, -3.72
2.5400, -0.59, -0.80, 0.20, 3.11, 1.71, -3.41
2.5433, -0.59, -0.79, 0.19, 2.80, 1.83, -3.05
2.5467, -0.59, -0.79, 0.17, 2.50, 1.77, -2.80
2.5500, -0.59, -0.79, 0.18, 2.07, 1.89, -2.50
2.5533, -0.59, -0.80, 0.19, 1.77, 1.95, -2.26
2.5567, -0.60, -0.80, 0.18, 1.34, 1.89, -2.20
2.5600, -0.59, -0.80, 0.18, 0.91, 1.89, -2.20
2.5633, -0.60, -0.80, 0.18, 0.55, 1.65, -2.26
2.5667, -0.59, -0.81, 0.18, 0.37, 1.65, -2.32
2.5700, -0.60, -0.80, 0.18, 0.18, 1.65, -2.56
2.5733, -0.59, -0.80, 0.18, -0.18, 1.40, -2.68
2.5767, -0.60, -0.81, 0.19, -0.30, 1.34, -2.80
2.5800, -0.59, -0.80, 0.18, -0.37, 1.40, -2.99
2.5833, -0.60, -0.79, 0.18, -0.37, 1.40, -2.99
2.5867, -0.60, -0.80, 0.16, -0.37, 1.28, -2.74
2.5900, -0.58, -0.81, 0.16, -0.37, 1.28, -2.62
2.5933, -0.59, -0.80, 0.16, -0.37, 1.34, -2.44
2.5967, -0.58, -0.80, 0.17, -0.12, 1.04, -2.20
2.6000, -0.58, -0.80, 0.17, -0.12, 0.91, -1.83
2.6033, -0.58, -0.80, 0.16, 0.12, 0.67, -1.52
2.6067, -0.58, -0.81, 0.17, 0.43, 0.55, -1.16
2.6100, -0.59, -0.81, 0.17, 1.04, 0.43, -0.91
2.6133, -0.58, -0.81, 0.17, 1.46, 0.37, -0.73
2.6167, -0.59, -0.80, 0.16, 2.07, 0.37, -0.37
2.6200, -0.60, -0.82, 0.17, 2.62, 0.43, -0.12
2.6233, -0.59, -0.81, 0.17, 3.29, 0.43, 0.24
2.6267, -0.59, -0.80, 0.16, 3.90, 0.43, 0.55
2.6300, -0.59, -0.81, 0.18, 4.39, 0.49, 0.79
2.6333, -0.59, -0.79, 0.17, 4.94, 0.55, 0.91
2.6367, -0.59, -0.79, 0.16, 5.18, 0.61, 0.91
2.6400, -0.58, -0.79, 0.18, 5.24, 0.30, 1.16
2.6433, -0.59, -0.78, 0.17, 5.43, -0.06, 1.16
2.6467, -0.58, -0.79, 0.18, 5.37, -0.24, 1.46
2.6500, -0.59, -0.78, 0.16, 5.24, -0.30, 1.40
2.6533, -0.60, -0.78, 0.17, 5.06, -0.24, 1.52
2.6567, -0.59, -0.79, 0.16, 4.88, -0.30, 1.52
2.6600, -0.59, -0.78, 0.17, 4.82, -0.67, 1.59
2.6633, -0.59, -0.79, 0.17, 4.63, -0.79, 1.34
2.6667, -0.59, -0.79, 0.18, 4.51, -0.61, 1.22
2.6700, -0.59, -0.79, 0.17, 4.09, -0.61, 1.04
2.6733, -0.59, -0.79, 0.17, 3.90, -0.43, 0.73
2.6767, -0.59, -0.79, 0.17, 3.60, -0.24, 0.43
2.6800, -0.58, -0.79, 0.19, 3.23, 0.00, 0.18
2.6833, -0.59, -0.80, 0.18, 2.93, 0.12, -0.24
2.6867, -0.59, -0.80, 0.18, 2.68, 0.30, -0.67
2.6900, -0.59, -0.81, 0.17, 2.44, 0.67, -0.91
2.6933, -0.58, -0.81, 0.17, 2.26, 0.98, -1.04
2.6967, -0.59, -0.81, 0.18, 1.89, 1.10, -1.28
2.7000, -0.59, -0.81, 0.18, 1.65, 1.34, -1.22
2.7033, -0.59, -0.82, 0.18, 1.34, 1.52, -1.22
2.7067, -0.59, -0.82, 0.18, 1.04, 1.46, -1.10
2.7100, -0.59, -0.82, 0.17, 0.49, 1.52, -0.79
2.7133, -0.58, -0.81, 0.17, 0.24, 1.65, -0.37
2.7167, -0.59, -0.83, 0.18, -0.18, 1.34, 0.30
2.7200, -0.58, -0.82, 0.18, -0.30, 1.10, 0.98
2.7233, -0.58, -0.82, 0.16, -0.24, 1.04, 1.65
2.7267, -0.59, -0.81, 0.17, -0.12, 1.10, 2.44
2.7300, -0.58, -0.82, 0.16, 0.18, 0.91, 3.29
2.7333, -0.58, -0.81, 0.16, 0.43, 0.98, 4.15
2.7367, -0.58, -0.80, 0.17, 0.73, 0.85, 4.82
2.7400, -0.58, -0.80, 0.15, 0.91, 0.79, 5.37
2.7433, -0.57, -0.80, 0.17, 1.34, 0.67, 5.73
2.7467, -0.58, -0.79, 0.17, 1.71, 0.61, 5.91
2.7500, -0.58, -0.79, 0.17, 2.13, 0.37, 5.85
2.7533, -0.59, -0.80, 0.16, 2.74, 0.24, 5.67
2.7567, -0.59, -0.79, 0.15, 3.60, 0.37, 5.43
2.7600, -0.59, -0.79, 0.16, 4.33, 0.49, 5.06
2.7633, -0.59, -0.79, 0.14, 4.88, 0.55, 4.45
2.7667, -0.60, -0.79, 0.14, 5.55, 0.43, 3.78
2.7700, -0.59, -0.78, 0.14, 5.85, 0.37, 2.99
2.7733, -0.58, -0.80, 0.16, 5.91, 0.06, 2.32
2.7767, -0.59, -0.81, 0.15, 5.91, -0.24, 1.46
2.7800, -0.59, -0.81, 0.15, 6.28, -0.55, 0.49
2.7833, -0.60, -0.83, 0.16, 6.59, -0.79, -0.55
2.7867, -0.61, -0.83, 0.16, 6.77, -0.91, -1.46
2.7900, -0.61, -0.84, 0.16, 7.07, -1.16, -2.38
2.7933, -0.61, -0.86, 0.16, 7.44, -1.22, -3.41
2.7967, -0.61, -0.88, 0.19, 7.99, -1.34, -4.33
2.8000, -0.61, -0.79, 0.22, 48.60, 2.87, 25.61
2.8033, -0.60, -0.77, 0.22, 48.48, 2.07, 27.62
2.8067, -0.60, -0.75, 0.22, 47.80, 1.16, 29.39
2.8100, -0.61, -0.75, 0.23, 46.65, 0.12, 30.91
2.8133, -0.60, -0.74, 0.24, 45.37, -1.04, 32.13
2.8167, -0.61, -0.73, 0.23, 43.96, -2.20, 32.99
2.8200, -0.60, -0.72, 0.25, 42.56, -2.87, 33.60
2.8233, -0.61, -0.72, 0.25, 41.52, -3.48, 33.84
2.8267, -0.61, -0.71, 0.26, 40.49, -3.90, 33.72
2.8300, -0.61, -0.71, 0.27, 39.45, -4.15, 33.54
2.8333, -0.61, -0.70, 0.28, 38.41, -4.27, 33.23
2.8367, -0.62, -0.72, 0.28, 37.32, -4.57, 32.74
2.8400, -0.61, -0.69, 0.30, 37.01, -4.88, 32.13
2.8433, -0.62, -0.67, 0.28, 37.50, -4.63, 31.10
2.8467, -0.63, -0.66, 0.29, 37.56, -4.33, 29.82
2.8500, -0.61, -0.69, 0.31, 37.26, -4.27, 28.90
2.8533, -0.62, -0.66, 0.30, 37.38, -4.15, 28.05
2.8567, -0.61, -0.66, 0.30, 37.80, -4.15, 26.71
2.8600, -0.62, -0.66, 0.31, 37.93, -3.84, 25.61
2.8633, -0.62, -0.66, 0.31, 38.17, -3.29, 24.51
2.8667, -0.61, -0.66, 0.31, 38.48, -2.87, 23.35
2.8700, -0.59, -0.67, 0.33, 38.90, -2.80, 22.07
2.8733, -0.64, -0.56, 0.31, 39.63, -2.44, 21.04
2.8767, -0.58, -0.59, 0.30, 40.24, -1.71, 20.06
2.8800, -0.58, -0.63, 0.38, 40.06, -1.77, 19.33
2.8833, -0.59, -0.62, 0.39, 40.18, -1.16, 18.05
2.8867, -0.63, -0.61, 0.38, 41.28, 0.67, 15.67
2.8900, -0.64, -0.64, 0.40, 42.87, 2.99, 13.29
2.8933, -0.62, -0.67, 0.39, 44.63, 5.49, 11.10
2.8967, -0.64, -0.66, 0.38, 47.13, 7.93, 9.15
2.9000, -0.67, -0.65, 0.35, 49.94, 9.94, 7.13
2.9033, -0.67, -0.64, 0.36, 52.07, 10.98, 5.55
2.9067, -0.63, -0.63, 0.38, 53.66, 11.46, 4.21
2.9100, -0.63, -0.64, 0.38, 55.06, 12.20, 2.80
2.9133, -0.65, -0.63, 0.38, 56.34, 13.29, 1.22
2.9167, -0.65, -0.64, 0.38, 57.38, 14.45, -0.18
2.9200, -0.65, -0.63, 0.34, 58.35, 15.85, -1.83
2.9233, -0.66, -0.63, 0.33, 58.90, 16.77, -3.23
2.9267, -0.65, -0.64, 0.32, 58.90, 16.71, -4.27
2.9300, -0.65, -0.64, 0.33, 58.78, 15.98, -5.06
2.9333, -0.67, -0.65, 0.35, 58.48, 14.82, -5.18
2.9367, -0.66, -0.65, 0.34, 57.80, 13.60, -4.94
2.9400, -0.66, -0.64, 0.34, 57.20, 12.32, -4.57
2.9433, -0.66, -0.64, 0.35, 56.59, 11.10, -4.02
2.9467, -0.65, -0.65, 0.35, 55.85, 10.18, -3.23
2.9500, -0.65, -0.65, 0.37, 54.76, 9.15, -2.07
2.9533, -0.65, -0.65, 0.40, 53.78, 8.29, -0.79
2.9567, -0.66, -0.67, 0.37, 53.23, 7.56, 0.37
2.9600, -0.65, -0.67, 0.40, 52.56, 7.01, 1.52
2.9633, -0.65, -0.66, 0.39, 52.13, 6.22, 2.93
2.9667, -0.66, -0.66, 0.41, 51.77, 5.73, 4.39
2.9700, -0.66, -0.65, 0.42, 51.52, 5.37, 5.98
2.9733, -0.66, -0.63, 0.42, 51.40, 5.37, 7.38
2.9767, -0.67, -0.64, 0.42, 51.28, 5.49, 8.60
2.9800, -0.66, -0.67, 0.44, 51.04, 5.55, 10.00
2.9833, -0.64, -0.65, 0.43, 50.79, 5.49, 11.40
2.9867, -0.65, -0.64, 0.45, 51.52, 5.37, 12.32
2.9900, -0.64, -0.63, 0.48, 52.26, 5.24, 13.54
2.9933, -0.66, -0.61, 0.46, 52.56, 5.73, 14.63
2.9967, -0.65, -0.60, 0.48, 52.80, 6.95, 15.67
3.0000, -0.66, -0.60, 0.46, 53.05, 8.35, 16.77
3.0033, -0.67, -0.59, 0.46, 52.99, 9.51, 17.93
3.0067, -0.67, -0.59, 0.45, 53.54, 10.91, 18.78
3.0100, -0.67, -0.60, 0.42, 54.02, 11.83, 19.39
3.0133, -0.68, -0.59, 0.41, 54.33, 12.07, 20.00
3.0167, -0.68, -0.61, 0.39, 55.00, 12.20, 19.94
3.0200, -0.67, -0.59, 0.37, 55.49, 12.01, 19.63
3.0233, -0.66, -0.58, 0.35, 55.73, 11.46, 19.21
3.0267, -0.67, -0.58, 0.36, 56.10, 10.73, 18.23
3.0300, -0.67, -0.59, 0.35, 56.65, 9.76, 17.20
3.0333, -0.67, -0.58, 0.34, 57.26, 8.41, 16.04
3.0367, -0.72, -0.56, 0.36, 57.87, 6.95, 14.94
3.0400, -0.65, -0.58, 0.40, 57.87, 5.61, 14.33
3.0433, -0.69, -0.64, 0.40, 56.59, 4.33, 14.09
3.0467, -0.69, -0.62, 0.37, 57.38, 2.99, 13.48
3.0500, -0.71, -0.61, 0.35, 59.57, 1.40, 12.38
3.0533, -0.68, -0.64, 0.34, 60.43, -0.61, 11.46
3.0567, -0.67, -0.64, 0.42, 61.34, -2.32, 10.30
3.0600, -0.69, -0.65, 0.41, 62.74, -2.99, 9.39
3.0633, -0.66, -0.66, 0.42, 63.72, -3.35, 8.72
3.0667, -0.66, -0.65, 0.44, 64.45, -3.29, 8.29
3.0700, -0.67, -0.65, 0.44, 65.18, -2.50, 7.99
3.0733, -0.66, -0.65, 0.46, 65.30, -1.52, 7.93
3.0767, -0.67, -0.64, 0.46, 64.33, -0.24, 8.11
3.0800, -0.67, -0.63, 0.47, 63.17, 1.10, 8.54
3.0833, -0.67, -0.63, 0.47, 61.28, 2.20, 9.02
3.0867, -0.68, -0.63, 0.46, 58.84, 3.29, 9.51
3.0900, -0.70, -0.65, 0.52, 56.22, 4.33, 9.70
3.0933, -0.70, -0.65, 0.44, 53.96, 5.30, 9.57
3.0967, -0.71, -0.59, 0.43, 52.87, 6.04, 8.60
3.1000, -0.69, -0.58, 0.46, 50.79, 6.04, 7.68
3.1033, -0.67, -0.60, 0.47, 46.89, 6.10, 6.83
3.1067, -0.69, -0.58, 0.49, 43.96, 6.89, 5.85
3.1100, -0.68, -0.56, 0.48, 41.34, 7.80, 5.12
3.1133, -0.69, -0.57, 0.48, 38.78, 8.11, 4.57
3.1167, -0.71, -0.55, 0.48, 36.71, 8.72, 4.15
3.1200, -0.72, -0.55, 0.48, 34.94, 8.96, 3.48
3.1233, -0.72, -0.55, 0.48, 33.05, 8.72, 3.05
3.1267, -0.71, -0.54, 0.48, 31.52, 8.23, 2.50
3.1300, -0.70, -0.56, 0.46, 30.12, 7.99, 1.95
3.1333, -0.70, -0.55, 0.47, 29.02, 7.68, 1.52
3.1367, -0.71, -0.55, 0.46, 28.23, 7.74, 0.98
3.1400, -0.70, -0.55, 0.43, 27.74, 7.50, 0.79
3.1433, -0.70, -0.55, 0.45, 26.83, 7.13, 0.73
3.1467, -0.70, -0.56, 0.43, 25.98, 6.77, 0.91
3.1500, -0.69, -0.55, 0.42, 24.88, 5.98, 1.40
3.1533, -0.70, -0.55, 0.44, 23.66, 5.24, 2.20
3.1567, -0.69, -0.56, 0.43, 22.56, 4.33, 3.05
3.1600, -0.70, -0.55, 0.42, 21.52, 3.35, 3.90
3.1633, -0.70, -0.56, 0.44, 20.73, 2.62, 4.94
3.1667, -0.70, -0.53, 0.38, 19.88, 1.83, 5.79
3.1700, -0.70, -0.52, 0.44, 18.41, 0.49, 6.59
3.1733, -0.70, -0.52, 0.44, 16.83, -0.67, 7.62
3.1767, -0.70, -0.54, 0.44, 15.43, -1.59, 8.41
3.1800, -0.68, -0.53, 0.43, 14.09, -2.20, 9.02
3.1833, -0.69, -0.50, 0.44, 13.41, -2.50, 9.21
3.1867, -0.67, -0.49, 0.44, 12.07, -2.80, 9.27
3.1900, -0.68, -0.49, 0.46, 9.70, -2.93, 9.33
3.1933, -0.69, -0.49, 0.46, 7.44, -2.62, 9.33
3.1967, -0.69, -0.51, 0.46, 5.61, -2.38, 8.60
3.2000, -0.70, -0.51, 0.46, 3.72, -2.32, 7.62
3.2033, -0.69, -0.50, 0.46, 1.95, -2.32, 6.59
3.2067, -0.69, -0.51, 0.46, 0.18, -1.89, 5.43
3.2100, -0.69, -0.50, 0.47, -1.22, -1.59, 4.27
3.2133, -0.69, -0.50, 0.48, -2.68, -1.10, 3.11
3.2167, -0.69, -0.51, 0.48, -3.78, -0.49, 1.89
3.2200, -0.68, -0.51, 0.47, -4.57, 0.37, 0.85
3.2233, -0.68, -0.52, 0.49, -5.55, 1.34, -0.24
3.2267, -0.68, -0.51, 0.48, -6.46, 2.26, -1.04
3.2300, -0.68, -0.52, 0.46, -7.13, 2.99, -1.89
3.2333, -0.68, -0.51, 0.46, -7.93, 3.78, -2.50
3.2367, -0.68, -0.51, 0.46, -8.41, 4.27, -3.05
3.2400, -0.68, -0.51, 0.45, -9.15, 4.76, -3.35
3.2433, -0.68, -0.50, 0.46, -9.51, 4.76, -3.60
3.2467, -0.68, -0.51, 0.46, -9.94, 4.88, -3.72
3.2500, -0.68, -0.50, 0.45, -10.43, 4.76, -3.72
3.2533, -0.68, -0.51, 0.44, -10.55, 4.70, -3.78
3.2567, -0.67, -0.51, 0.42, -10.73, 4.45, -3.60
3.2600, -0.66, -0.50, 0.42, -11.04, 4.09, -3.78
3.2633, -0.66, -0.50, 0.42, -11.10, 3.60, -3.78
3.2667, -0.66, -0.52, 0.41, -11.04, 3.17, -3.84
3.2700, -0.66, -0.52, 0.40, -11.04, 2.56, -3.78
3.2733, -0.67, -0.52, 0.43, -10.79, 2.01, -3.96
3.2767, -0.67, -0.54, 0.40, -10.37, 1.16, -4.02
3.2800, -0.68, -0.54, 0.41, -9.70, 0.49, -4.15
3.2833, -0.68, -0.55, 0.40, -8.78, -0.12, -4.27
3.2867, -0.67, -0.56, 0.40, -7.87, -0.73, -4.33
3.2900, -0.67, -0.57, 0.41, -6.95, -1.10, -4.39
3.2933, -0.67, -0.55, 0.41, -5.85, -1.28, -4.15
3.2967, -0.66, -0.57, 0.44, -5.12, -1.40, -3.96
3.3000, -0.65, -0.59, 0.43, -4.51, -2.93, -4.82
3.3033, -0.64, -0.63, 0.44, -4.82, -2.87, -4.63
3.3067, -0.66, -0.63, 0.43, -5.79, -2.62, -4.02
3.3100, -0.70, -0.60, 0.44, -4.88, -2.99, -3.96
3.3133, -0.70, -0.61, 0.43, -3.66, -3.60, -4.21
3.3167, -0.69, -0.61, 0.44, -3.29, -4.21, -4.09
3.3200, -0.69, -0.60, 0.47, -2.80, -4.33, -3.78
3.3233, -0.68, -0.62, 0.46, -2.20, -3.90, -3.60
3.3267, -0.68, -0.62, 0.45, -1.28, -3.78, -3.41
3.3300, -0.68, -0.60, 0.47, -0.06, -3.41, -3.05
3.3333, -0.69, -0.60, 0.47, 0.79, -2.74, -2.62
3.3367, -0.69, -0.61, 0.46, 1.22, -2.44, -2.13
3.3400, -0.68, -0.60, 0.46, 1.71, -2.20, -1.40
3.3433, -0.67, -0.60, 0.46, 2.07, -2.32, -0.73
3.3467, -0.68, -0.60, 0.46, 2.44, -2.26, -0.37
3.3500, -0.68, -0.60, 0.46, 2.62, -2.32, 0.24
3.3533, -0.68, -0.60, 0.46, 2.56, -2.32, 0.79
3.3567, -0.69, -0.60, 0.45, 2.38, -2.26, 1.34
3.3600, -0.69, -0.60, 0.45, 2.32, -2.50, 1.89
3.3633, -0.68, -0.59, 0.46, 2.07, -2.56, 2.32
3.3667, -0.68, -0.59, 0.45, 2.01, -2.68, 2.68
3.3700, -0.68, -0.58, 0.46, 1.89, -2.68, 3.11
3.3733, -0.69, -0.59, 0.45, 2.01, -2.80, 3.35
3.3767, -0.69, -0.59, 0.46, 1.59, -2.93, 3.48
3.3800, -0.69, -0.58, 0.45, 1.52, -2.93, 3.41
3.3833, -0.69, -0.58, 0.47, 1.22, -2.80, 3.35
3.3867, -0.69, -0.58, 0.46, 1.16, -2.68, 3.29
3.3900, -0.69, -0.58, 0.44, 1.10, -2.68, 3.23
3.3933, -0.69, -0.58, 0.45, 0.91, -2.44, 2.99
3.3967, -0.70, -0.58, 0.46, 0.98, -2.38, 2.62
3.4000, -0.70, -0.57, 0.46, 0.79, -2.20, 2.13
3.4033, -0.70, -0.58, 0.45, 0.55, -2.07, 1.71
3.4067, -0.69, -0.57, 0.45, 0.49, -2.26, 1.46
3.4100, -0.69, -0.57, 0.46, 0.30, -2.38, 1.04
3.4133, -0.69, -0.57, 0.46, 0.12, -2.44, 0.79
3.4167, -0.69, -0.57, 0.45, -0.06, -2.38, 0.43
3.4200, -0.69, -0.57, 0.46, -0.18, -2.38, 0.30
3.4233, -0.69, -0.57, 0.47, -0.43, -2.38, 0.06
3.4267, -0.69, -0.57, 0.46, -0.67, -2.32, -0.30
3.4300, -0.68, -0.57, 0.47, -0.91, -2.26, -0.49
3.4333, -0.70, -0.58, 0.45, -1.04, -2.20, -0.73
3.4367, -0.69, -0.58, 0.47, -1.22, -2.13, -0.73
3.4400, -0.68, -0.56, 0.48, -1.28, -1.89, -0.73
3.4433, -0.69, -0.58, 0.48, -1.28, -1.59, -0.79
3.4467, -0.69, -0.58, 0.48, -1.16, -1.46, -0.85
3.4500, -0.69, -0.57, 0.47, -1.22, -1.28, -0.85
3.4533, -0.69, -0.57, 0.47, -1.16, -1.04, -0.73
3.4567, -0.69, -0.58, 0.46, -0.91, -0.98, -0.85
3.4600, -0.69, -0.58, 0.46, -0.85, -0.67, -0.79
3.4633, -0.68, -0.58, 0.45, -0.67, -0.43, -0.85
3.4667, -0.69, -0.58, 0.47, -0.43, -0.43, -0.91
3.4700, -0.69, -0.58, 0.46, -0.37, -0.18, -1.10
3.4733, -0.69, -0.57, 0.45, -0.24, -0.18, -1.16
3.4767, -0.68, -0.57, 0.45, -0.24, -0.18, -1.22
3.4800, -0.67, -0.57, 0.47, -1.04, -0.18, -1.10
3.4833, -0.68, -0.56, 0.47, -2.44, 0.00, -0.67
3.4867, -0.74, -0.45, 0.54, -3.96, 0.00, -0.30
3.4900, -0.61, -0.52, 0.41, -7.80, 0.18, 0.73
3.4933, -0.64, -0.75, 0.52, -14.27, -0.24, 3.05
3.4967, -0.66, -0.58, 0.46, -15.18, -0.30, 3.66
3.5000, -0.78, -0.60, 0.58, -13.23, -0.30, 3.78
3.5033, -0.66, -0.69, 0.44, -14.76, -1.28, 4.51
3.5067, -0.71, -0.58, 0.47, -15.67, -1.46, 4.70
3.5100, -0.69, -0.59, 0.47, -14.51, -0.98, 4.45
3.5133, -0.67, -0.59, 0.42, -14.51, -0.73, 4.45
3.5167, -0.68, -0.59, 0.42, -14.94, -0.79, 4.33
3.5200, -0.67, -0.59, 0.46, -15.00, -0.61, 4.33
3.5233, -0.67, -0.62, 0.44, -15.24, -0.43, 4.27
3.5267, -0.68, -0.62, 0.45, -14.39, -0.67, 3.96
3.5300, -0.67, -0.62, 0.46, -12.93, -0.67, 3.96
3.5333, -0.65, -0.60, 0.42, -11.40, -0.37, 4.33
3.5367, -0.67, -0.59, 0.43, -10.00, 0.06, 4.88
3.5400, -0.67, -0.58, 0.42, -9.21, 0.06, 5.55
3.5433, -0.67, -0.57, 0.44, -9.33, -0.30, 6.28
3.5467, -0.68, -0.58, 0.44, -9.57, -0.67, 6.77
3.5500, -0.67, -0.59, 0.44, -9.63, -1.16, 7.01
3.5533, -0.68, -0.60, 0.43, -9.76, -1.52, 7.20
3.5567, -0.69, -0.60, 0.43, -9.09, -2.07, 7.13
3.5600, -0.69, -0.61, 0.43, -8.60, -2.80, 6.83
3.5633, -0.68, -0.60, 0.42, -8.05, -3.48, 6.59
3.5667, -0.68, -0.61, 0.44, -7.26, -3.72, 6.22
3.5700, -0.67, -0.60, 0.42, -6.16, -4.02, 5.67
3.5733, -0.68, -0.60, 0.42, -4.94, -3.84, 5.12
3.5767, -0.67, -0.60, 0.43, -3.35, -3.60, 4.45
3.5800, -0.69, -0.60, 0.43, -2.26, -3.23, 3.84
3.5833, -0.67, -0.59, 0.43, -1.10, -2.80, 3.11
3.5867, -0.67, -0.58, 0.44, 0.18, -2.32, 2.56
3.5900, -0.68, -0.58, 0.45, 1.04, -2.01, 2.01
3.5933, -0.67, -0.57, 0.45, 1.65, -1.71, 1.40
3.5967, -0.68, -0.56, 0.44, 2.44, -1.65, 0.73
3.6000, -0.67, -0.55, 0.46, 2.68, -1.65, 0.24
3.6033, -0.68, -0.55, 0.45, 2.87, -1.59, -0.37
3.6067, -0.67, -0.55, 0.45, 2.99, -1.59, -0.79
3.6100, -0.67, -0.54, 0.44, 2.80, -1.59, -1.34
3.6133, -0.67, -0.54, 0.45, 2.50, -1.59, -1.83
3.6167, -0.67, -0.54, 0.45, 2.13, -1.59, -2.32
3.6200, -0.67, -0.55, 0.43, 1.65, -1.59, -2.99
3.6233, -0.67, -0.54, 0.45, 1.22, -1.52, -3.23
3.6267, -0.68, -0.55, 0.44, 0.73, -1.71, -3.60
3.6300, -0.67, -0.56, 0.45, 0.18, -2.01, -3.60
3.6333, -0.66, -0.57, 0.44, -0.49, -2.13, -3.54
3.6367, -0.67, -0.58, 0.44, -1.04, -2.50, -3.11
3.6400, -0.66, -0.60, 0.43, -1.71, -2.80, -2.38
3.6433, -0.67, -0.61, 0.44, -2.44, -3.17, -1.46
3.6467, -0.67, -0.62, 0.42, -2.99, -3.60, -0.30
3.6500, -0.67, -0.62, 0.44, -3.48, -3.90, 0.91
3.6533, -0.66, -0.62, 0.44, -4.02, -4.21, 1.89
3.6567, -0.68, -0.67, 0.42, -4.33, -4.57, 2.93
3.6600, -0.71, -0.65, 0.41, -3.35, -4.76, 3.41
3.6633, -0.69, -0.62, 0.41, -1.04, -5.00, 2.74
3.6667, -0.70, -0.63, 0.40, 0.37, -4.82, 1.40
3.6700, -0.69, -0.62, 0.42, 2.01, -4.70, -0.67
3.6733, -0.68, -0.61, 0.42, 3.54, -4.27, -2.56
3.6767, -0.67, -0.61, 0.46, 4.45, -3.66, -3.48
3.6800, -0.68, -0.60, 0.46, 5.12, -2.74, -3.72
3.6833, -0.68, -0.58, 0.45, 5.73, -1.83, -3.78
3.6867, -0.69, -0.58, 0.45, 5.67, -1.16, -3.35
3.6900, -0.69, -0.58, 0.45, 4.76, -0.85, -3.23
3.6933, -0.68, -0.58, 0.46, 3.48, -1.10, -3.05
3.6967, -0.68, -0.59, 0.46, 2.20, -1.46, -2.99
3.7000, -0.68, -0.59, 0.47, 0.67, -1.95, -2.74
3.7033, -0.69, -0.59, 0.45, -0.67, -2.20, -2.62
3.7067, -0.69, -0.59, 0.45, -1.95, -2.38, -2.62
3.7100, -0.70, -0.59, 0.45, -2.87, -2.50, -2.68
3.7133, -0.69, -0.58, 0.45, -3.66, -2.56, -2.80
3.7167, -0.69, -0.58, 0.44, -4.45, -2.38, -2.99
3.7200, -0.68, -0.57, 0.45, -5.18, -2.07, -3.41
3.7233, -0.69, -0.56, 0.46, -5.67, -2.01, -3.84
3.7267, -0.68, -0.58, 0.46, -5.91, -1.71, -4.09
3.7300, -0.67, -0.58, 0.45, -5.91, -1.46, -4.21
3.7333, -0.68, -0.58, 0.44, -5.98, -1.16, -4.15
3.7367, -0.68, -0.58, 0.46, -5.73, -1.10, -4.02
3.7400, -0.68, -0.59, 0.44, -5.85, -1.28, -3.96
3.7433, -0.68, -0.59, 0.45, -5.73, -1.22, -3.72
3.7467, -0.67, -0.59, 0.44, -5.55, -1.16, -3.60
3.7500, -0.67, -0.58, 0.43, -5.24, -1.28, -3.60
3.7533, -0.67, -0.59, 0.44, -4.94, -1.22, -3.48
3.7567, -0.68, -0.60, 0.42, -4.63, -1.10, -3.41
3.7600, -0.67, -0.59, 0.43, -4.27, -0.98, -3.29
3.7633, -0.68, -0.58, 0.43, -3.84, -0.98, -3.35
3.7667, -0.68, -0.58, 0.44, -3.66, -0.85, -3.29
3.7700, -0.68, -0.59, 0.43, -3.23, -0.91, -3.29
3.7733, -0.68, -0.59, 0.43, -3.23, -0.85, -3.23
3.7767, -0.68, -0.60, 0.43, -3.23, -1.04, -3.41
3.7800, -0.67, -0.60, 0.42, -3.05, -1.04, -3.48
3.7833, -0.67, -0.60, 0.44, -2.87, -0.98, -3.35
3.7867, -0.68, -0.60, 0.42, -2.74, -1.04, -3.35
3.7900, -0.67, -0.60, 0.42, -2.62, -1.04, -3.23
3.7933, -0.68, -0.60, 0.42, -2.38, -0.98, -3.23
3.7967, -0.68, -0.60, 0.42, -2.20, -0.91, -3.29
3.8000, -0.68, -0.61, 0.43, -1.77, -0.85, -3.41
3.8033, -0.68, -0.60, 0.44, -1.59, -0.79, -3.48
3.8067, -0.68, -0.61, 0.42, -1.59, -0.73, -3.48
3.8100, -0.68, -0.60, 0.43, -1.59, -0.79, -3.41
3.8133, -0.68, -0.60, 0.43, -1.40, -0.73, -3.29
3.8167, -0.68, -0.61, 0.45, -1.59, -0.73, -3.11
3.8200, -0.69, -0.60, 0.44, -1.59, -0.91, -3.23
3.8233, -0.68, -0.59, 0.45, -1.77, -1.04, -3.17
3.8267, -0.69, -0.60, 0.45, -1.95, -1.28, -3.11
3.8300, -0.69, -0.59, 0.44, -2.32, -1.40, -3.17
3.8333, -0.68, -0.60, 0.44, -2.68, -1.40, -3.17
3.8367, -0.68, -0.60, 0.46, -2.93, -1.28, -3.35
3.8400, -0.69, -0.60, 0.45, -3.05, -1.10, -3.48
3.8433, -0.68, -0.61, 0.45, -3.35, -1.04, -3.54
3.8467, -0.69, -0.60, 0.45, -3.60, -1.16, -3.41
3.8500, -0.68, -0.60, 0.46, -3.78, -1.28, -3.35
3.8533, -0.68, -0.60, 0.45, -4.02, -1.22, -3.29
3.8567, -0.68, -0.61, 0.44, -4.21, -1.28, -3.17
3.8600, -0.69, -0.61, 0.45, -4.33, -1.52, -3.05
3.8633, -0.68, -0.61, 0.45, -4.39, -1.40, -2.99
3.8667, -0.69, -0.61, 0.44, -4.09, -1.65, -2.93
3.8700, -0.68, -0.61, 0.45, -4.15, -1.65, -2.87
3.8733, -0.67, -0.61, 0.44, -4.02, -1.77, -2.87
3.8767, -0.68, -0.61, 0.44, -3.78, -1.59, -2.62
3.8800, -0.68, -0.61, 0.44, -3.48, -1.46, -2.56
3.8833, -0.68, -0.62, 0.45, -3.17, -1.34, -2.44
3.8867, -0.68, -0.61, 0.45, -2.68, -1.28, -2.38
3.8900, -0.68, -0.61, 0.46, -2.20, -1.34, -2.13
3.8933, -0.68, -0.61, 0.45, -1.71, -1.22, -1.83
3.8967, -0.68, -0.61, 0.44, -1.22, -1.22, -1.77
3.9000, -0.67, -0.61, 0.44, -0.55, -1.28, -1.40
3.9033, -0.68, -0.61, 0.44, 0.18, -1.40, -1.28
3.9067, -0.68, -0.61, 0.44, 0.85, -1.34, -1.16
3.9100, -0.68, -0.62, 0.44, 1.46, -1.34, -0.91
3.9133, -0.68, -0.61, 0.43, 1.89, -1.34, -0.61
3.9167, -0.67, -0.62, 0.46, 2.68, -1.28, -0.37
3.9200, -0.68, -0.62, 0.45, 3.11, -1.46, -0.18
3.9233, -0.68, -0.61, 0.45, 3.60, -1.46, -0.06
3.9267, -0.68, -0.62, 0.45, 3.90, -1.40, 0.30
3.9300, -0.68, -0.60, 0.43, 4.21, -1.46, 0.55
3.9333, -0.68, -0.62, 0.45, 4.33, -1.40, 0.61
3.9367, -0.68, -0.60, 0.45, 4.45, -1.34, 0.79
3.9400, -0.68, -0.60, 0.44, 4.39, -1.22, 1.04
3.9433, -0.67, -0.60, 0.44, 4.02, -1.10, 1.16
3.9467, -0.67, -0.61, 0.44, 3.41, -1.10, 1.34
3.9500, -0.68, -0.61, 0.45, 2.74, -1.10, 1.52
3.9533, -0.68, -0.61, 0.45, 2.07, -1.34, 1.71
3.9567, -0.69, -0.60, 0.44, 1.34, -1.40, 1.95
3.9600, -0.69, -0.61, 0.45, 0.79, -1.40, 1.83
3.9633, -0.68, -0.61, 0.43, 0.30, -1.59, 1.77
3.9667, -0.68, -0.61, 0.46, 0.06, -1.65, 1.52
3.9700, -0.68, -0.61, 0.44, -0.18, -1.59, 1.40
3.9733, -0.69, -0.62, 0.45, 0.12, -1.65, 1.28
3.9767, -0.68, -0.62, 0.44, 0.43, -1.46, 0.98
3.9800, -0.68, -0.62, 0.42, 1.04, -1.22, 0.85
3.9833, -0.68, -0.62, 0.43, 1.59, -1.04, 0.61
3.9867, -0.68, -0.62, 0.43, 2.26, -0.98, 0.24
3.9900, -0.69, -0.62, 0.44, 3.05, -1.04, 0.06
3.9933, -0.70, -0.62, 0.43, 3.96, -1.04, -0.18
3.9967, -0.69, -0.63, 0.45, 4.70, -1.22, -0.67
4.0000, -0.70, -0.63, 0.43, 5.85, -1.40, -1.22
4.0033, -0.70, -0.64, 0.43, 7.07, -1.40, -1.52
4.0067, -0.69, -0.66, 0.42, 8.17, -1.65, -1.83
4.0100, -0.70, -0.67, 0.45, 9.15, -1.77, -1.71
4.0133, -0.71, -0.68, 0.45, 10.37, -1.65, -1.77
4.0167, -0.71, -0.67, 0.42, 12.13, -1.34, -2.44
4.0200, -0.71, -0.66, 0.40, 13.72, -1.10, -2.99
4.0233, -0.70, -0.63, 0.44, 15.00, -1.04, -3.84
4.0267, -0.70, -0.64, 0.44, 15.73, -0.49, -4.39
4.0300, -0.69, -0.64, 0.45, 16.10, 0.06, -5.06
4.0333, -0.69, -0.60, 0.46, 16.59, 0.43, -4.94
4.0367, -0.69, -0.61, 0.47, 16.65, 0.91, -4.39
4.0400, -0.69, -0.63, 0.48, 15.91, 1.28, -3.66
4.0433, -0.68, -0.62, 0.47, 14.88, 1.28, -2.38
4.0467, -0.70, -0.62, 0.48, 13.78, 1.28, -0.98
4.0500, -0.69, -0.62, 0.48, 12.50, 1.34, 0.30
4.0533, -0.70, -0.64, 0.47, 11.10, 1.10, 1.52
4.0567, -0.71, -0.62, 0.48, 10.00, 0.73, 2.56
4.0600, -0.72, -0.70, 0.45, 9.02, 0.24, 3.35
4.0633, -0.74, -0.64, 0.44, 9.57, -0.43, 3.41
4.0667, -0.71, -0.60, 0.46, 10.49, -1.04, 3.35
4.0700, -0.70, -0.66, 0.50, 9.45, -1.28, 3.72
4.0733, -0.71, -0.65, 0.51, 8.78, -0.85, 4.02
4.0767, -0.72, -0.65, 0.50, 9.94, -0.18, 4.33
4.0800, -0.71, -0.68, 0.49, 10.37, 0.06, 4.70
4.0833, -0.73, -0.68, 0.49, 10.91, 0.30, 5.18
4.0867, -0.73, -0.68, 0.49, 11.59, 0.67, 5.43
4.0900, -0.72, -0.69, 0.49, 12.01, 0.67, 5.61
4.0933, -0.72, -0.69, 0.48, 12.80, 0.67, 5.73
4.0967, -0.71, -0.68, 0.49, 14.02, 0.73, 5.49
4.1000, -0.30, -0.11, 1.04, 162.50, -87.44, -18.41
4.1033, -0.24, -0.03, 1.11, 162.80, -76.65, -22.80
4.1067, -0.22, 0.01, 0.99, 164.15, -63.66, -27.01
4.1100, -0.30, 0.02, 1.05, 166.89, -52.87, -31.52
4.1133, -0.37, -0.06, 1.09, 169.09, -41.89, -35.18
4.1167, -0.35, -0.04, 1.03, 174.21, -32.44, -37.56
4.1200, -0.39, 0.02, 0.93, 181.40, -24.76, -38.84
4.1233, -0.50, 0.04, 0.93, 188.54, -17.56, -39.45
4.1267, -0.60, 0.09, 0.91, 195.79, -12.32, -38.90
4.1300, -0.60, 0.05, 0.76, 203.05, -9.82, -37.68
4.1333, -0.66, 0.08, 0.72, 210.00, -9.76, -36.16
4.1367, -0.66, 0.08, 0.78, 216.52, -12.74, -35.55
4.1400, -0.57, 0.12, 0.73, 221.77, -17.26, -34.27
4.1433, -0.58, 0.17, 0.69, 227.13, -22.13, -33.23
4.1467, -0.60, 0.14, 0.79, 230.73, -26.22, -32.74
4.1500, -0.56, -0.03, 0.86, 229.70, -28.29, -30.30
4.1533, -0.57, 0.11, 0.73, 231.77, -29.02, -28.60
4.1567, -0.63, 0.11, 0.77, 236.10, -29.76, -29.21
4.1600, -0.51, 0.21, 0.68, 237.56, -31.40, -28.54
4.1633, -0.52, 0.25, 0.73, 236.59, -34.15, -27.32
4.1667, -0.45, 0.23, 0.65, 235.18, -37.62, -24.51
4.1700, -0.44, 0.28, 0.67, 235.12, -41.10, -22.13
4.1733, -0.49, 0.26, 0.63, 236.83, -44.27, -20.43
4.1767, -0.52, 0.30, 0.61, 237.38, -48.11, -18.90
4.1800, -0.56, 0.28, 0.68, 235.98, -51.95, -17.93
4.1833, -0.54, 0.25, 0.72, 233.66, -55.55, -17.80
4.1867, -0.50, 0.30, 0.75, 232.50, -58.05, -18.05
4.1900, -0.46, 0.27, 0.79, 230.30, -58.48, -19.09
4.1933, -0.44, 0.15, 0.82, 226.83, -57.56, -20.24
4.1967, -0.54, 0.22, 0.90, 222.44, -55.18, -23.29
4.2000, -0.35, 0.23, 0.90, 217.07, -51.77, -28.23
4.2033, -0.30, 0.24, 0.87, 212.93, -49.15, -34.27
4.2067, -0.28, 0.25, 0.91, 207.74, -44.27, -39.94
4.2100, -0.28, 0.27, 0.87, 203.17, -39.15, -43.66
4.2133, -0.30, 0.27, 0.84, 199.02, -33.48, -48.05
4.2167, -0.32, 0.30, 0.88, 196.04, -28.05, -52.20
4.2200, -0.32, 0.35, 0.86, 193.60, -23.72, -55.67
4.2233, -0.39, 0.35, 0.87, 190.12, -19.63, -58.84
4.2267, -0.46, 0.40, 0.79, 188.41, -14.70, -61.34
4.2300, -0.52, 0.44, 0.74, 188.41, -10.85, -64.09
4.2333, -0.54, 0.47, 0.73, 187.74, -8.78, -65.85
4.2367, -0.52, 0.48, 0.71, 186.46, -7.80, -66.65
4.2400, -0.75, 0.36, 0.91, 186.40, -8.35, -67.50
4.2433, -0.42, 0.48, 0.54, 186.95, -7.38, -67.50
4.2467, -0.42, 0.64, 0.46, 187.01, -7.68, -66.10
4.2500, -0.49, 0.54, 0.52, 186.16, -9.82, -64.94
4.2533, -0.44, 0.54, 0.53, 183.96, -12.56, -63.29
4.2567, -0.47, 0.55, 0.52, 181.34, -15.55, -62.32
4.2600, -0.47, 0.61, 0.51, 179.33, -17.93, -61.34
4.2633, -0.48, 0.56, 0.48, 176.95, -20.18, -61.95
4.2667, -0.48, 0.57, 0.53, 173.41, -21.59, -62.74
4.2700, -0.49, 0.56, 0.51, 168.66, -22.26, -63.35
4.2733, -0.45, 0.58, 0.45, 163.23, -22.07, -65.06
4.2767, -0.46, 0.44, 0.44, 156.22, -21.04, -67.93
4.2800, -0.42, 0.54, 0.45, 143.90, -17.87, -72.07
4.2833, -0.38, 0.56, 0.50, 133.54, -13.72, -76.04
4.2867, -0.36, 0.49, 0.50, 122.93, -8.17, -82.01
4.2900, -0.37, 0.62, 0.47, 113.66, -0.61, -86.34
4.2933, -0.40, 0.53, 0.53, 105.12, 6.22, -90.00
4.2967, -0.43, 0.49, 0.56, 98.23, 12.20, -93.05
4.3000, -0.52, 0.55, 0.53, 93.29, 16.34, -93.90
4.3033, -0.58, 0.56, 0.42, 88.05, 18.48, -94.45
4.3067, -0.59, 0.56, 0.56, 82.13, 17.99, -93.90
4.3100, -0.54, 0.50, 0.37, 76.10, 17.07, -91.77
4.3133, -0.40, 0.46, 0.47, 71.16, 15.55, -89.45
4.3167, -0.49, 0.56, 0.49, 67.50, 14.94, -88.78
4.3200, -0.53, 0.47, 0.61, 63.11, 15.67, -85.24
4.3233, -0.58, 0.48, 0.57, 59.70, 16.34, -80.85
4.3267, -0.64, 0.50, 0.66, 58.29, 15.43, -78.84
4.3300, -0.66, 0.47, 0.73, 57.07, 14.15, -75.91
4.3333, -0.66, 0.53, 0.72, 56.10, 14.76, -71.40
4.3367, -0.68, 0.44, 0.64, 56.83, 16.65, -67.32
4.3400, -0.72, 0.51, 0.74, 57.44, 17.38, -62.74
4.3433, -0.76, 0.55, 0.66, 57.56, 18.90, -58.05
4.3467, -0.67, 0.38, 0.63, 55.98, 18.72, -52.93
4.3500, -0.55, 0.37, 0.65, 53.96, 19.09, -48.11
4.3533, -0.53, 0.39, 0.65, 54.33, 21.89, -44.70
4.3567, -0.53, 0.35, 0.63, 56.40, 25.37, -42.01
4.3600, -0.56, 0.32, 0.69, 58.05, 27.26, -40.37
4.3633, -0.59, 0.34, 0.70, 59.88, 27.32, -39.39
4.3667, -0.62, 0.32, 0.73, 61.59, 26.34, -39.02
4.3700, -0.64, 0.30, 0.72, 62.32, 24.94, -38.78
4.3733, -0.62, 0.28, 0.73, 63.23, 23.60, -38.05
4.3767, -0.61, 0.25, 0.68, 64.88, 22.62, -37.44
4.3800, -0.64, 0.24, 0.68, 67.62, 21.95, -37.20
4.3833, -0.67, 0.22, 0.66, 71.10, 21.04, -37.01
4.3867, -0.69, 0.21, 0.67, 74.70, 19.33, -36.59
4.3900, -0.73, 0.21, 0.64, 78.66, 16.95, -35.85
4.3933, -0.75, 0.22, 0.64, 83.29, 13.54, -34.33
4.3967, -0.74, 0.22, 0.59, 87.87, 9.09, -32.20
4.4000, -0.74, 0.20, 0.67, 90.55, 3.90, -28.90
4.4033, -0.85, 0.18, 0.80, 92.99, -0.85, -23.96
4.4067, -0.97, 0.24, 0.73, 99.39, -6.34, -19.51
4.4100, -0.93, 0.27, 0.69, 107.38, -13.78, -15.79
4.4133, -0.83, 0.33, 0.65, 113.96, -22.80, -11.16
4.4167, -0.76, 0.32, 0.64, 119.76, -31.04, -6.40
4.4200, -0.71, 0.32, 0.62, 125.43, -36.95, -1.40
4.4233, -0.72, 0.36, 0.59, 131.34, -41.16, 3.72
4.4267, -0.73, 0.41, 0.59, 136.71, -44.88, 8.54
4.4300, -0.71, 0.42, 0.59, 140.12, -48.78, 12.74
4.4333, -0.68, 0.46, 0.59, 141.83, -52.99, 16.89
4.4367, -0.65, 0.46, 0.61, 142.32, -56.77, 20.79
4.4400, -0.62, 0.51, 0.58, 142.13, -59.33, 23.96
4.4433, -0.60, 0.54, 0.58, 142.01, -60.30, 26.77
4.4467, -0.56, 0.57, 0.56, 141.28, -59.82, 28.90
4.4500, -0.53, 0.59, 0.62, 139.70, -58.29, 30.67
4.4533, -0.48, 0.62, 0.66, 137.74, -55.24, 31.95
4.4567, -0.47, 0.70, 0.70, 135.91, -50.98, 32.93
4.4600, -0.48, 0.69, 0.72, 135.06, -45.98, 33.11
4.4633, -0.42, 0.73, 0.63, 135.00, -41.59, 32.26
4.4667, -0.34, 0.71, 0.63, 133.29, -38.11, 30.98
4.4700, -0.32, 0.68, 0.65, 131.04, -33.41, 29.51
4.4733, -0.32, 0.70, 0.60, 130.67, -28.54, 27.56
4.4767, -0.36, 0.71, 0.62, 130.37, -23.66, 24.76
4.4800, -0.41, 0.67, 0.60, 129.76, -18.90, 21.83
4.4833, -0.43, 0.69, 0.63, 129.51, -15.37, 18.72
4.4867, -0.43, 0.67, 0.61, 129.33, -12.99, 15.30
4.4900, -0.43, 0.69, 0.60, 129.63, -11.28, 11.65
4.4933, -0.43, 0.67, 0.57, 130.37, -10.37, 8.54
4.4967, -0.42, 0.66, 0.54, 131.04, -10.00, 5.67
4.5000, -0.43, 0.67, 0.50, 131.52, -10.18, 3.11
4.5033, -0.44, 0.66, 0.51, 131.71, -10.85, 1.04
4.5067, -0.49, 0.67, 0.53, 131.83, -11.71, -0.73
4.5100, -0.49, 0.67, 0.50, 132.38, -13.90, -2.38
4.5133, -0.50, 0.69, 0.47, 132.99, -16.28, -3.66
4.5167, -0.49, 0.69, 0.43, 133.05, -18.17, -4.57
4.5200, -0.49, 0.69, 0.41, 132.50, -19.15, -5.00
4.5233, -0.48, 0.69, 0.41, 130.85, -19.09, -5.61
4.5267, -0.49, 0.71, 0.41, 128.48, -18.48, -6.22
4.5300, -0.50, 0.74, 0.40, 125.61, -17.26, -6.83
4.5333, -0.52, 0.74, 0.40, 122.07, -16.16, -7.38
4.5367, -0.52, 0.74, 0.41, 117.99, -15.18, -7.62
4.5400, -0.54, 0.75, 0.42, 114.57, -14.27, -7.74
4.5433, -0.53, 0.72, 0.43, 111.77, -13.35, -7.93
4.5467, -0.55, 0.68, 0.46, 109.15, -12.26, -8.54
4.5500, -0.57, 0.74, 0.42, 108.29, -11.71, -9.51
4.5533, -0.57, 0.74, 0.47, 106.59, -11.59, -10.12
4.5567, -0.58, 0.70, 0.50, 102.93, -10.73, -9.63
4.5600, -0.58, 0.72, 0.50, 100.43, -9.09, -8.35
4.5633, -0.59, 0.74, 0.47, 99.27, -7.68, -7.26
4.5667, -0.56, 0.75, 0.49, 98.35, -6.89, -6.28
4.5700, -0.59, 0.74, 0.44, 97.93, -6.89, -5.37
4.5733, -0.57, 0.72, 0.46, 97.26, -7.74, -4.15
4.5767, -0.55, 0.70, 0.46, 96.10, -8.66, -2.50
4.5800, -0.55, 0.73, 0.42, 96.83, -8.60, -1.65
4.5833, -0.54, 0.74, 0.38, 98.72, -8.54, -0.85
4.5867, -0.52, 0.75, 0.40, 100.49, -8.90, 0.24
4.5900, -0.53, 0.75, 0.40, 101.59, -9.94, 1.28
4.5933, -0.54, 0.76, 0.40, 101.83, -11.34, 2.32
4.5967, -0.53, 0.76, 0.36, 101.89, -13.23, 3.29
4.6000, -0.51, 0.78, 0.35, 102.13, -15.24, 4.21
4.6033, -0.50, 0.78, 0.34, 102.20, -17.26, 4.63
4.6067, -0.48, 0.83, 0.33, 101.89, -19.15, 5.06
4.6100, -0.49, 0.79, 0.36, 100.98, -20.85, 5.18
4.6133, -0.50, 0.79, 0.36, 99.33, -21.95, 5.24
4.6167, -0.48, 0.81, 0.36, 98.72, -22.93, 4.45
4.6200, -0.47, 0.81, 0.31, 98.05, -24.09, 2.80
4.6233, -0.42, 0.82, 0.29, 96.28, -25.55, 0.79
4.6267, -0.41, 0.75, 0.28, 93.41, -26.89, -1.28
4.6300, -0.40, 0.89, 0.38, 90.55, -27.50, -4.09
4.6333, -0.43, 0.81, 0.35, 87.99, -27.20, -6.71
4.6367, -0.44, 0.81, 0.34, 85.43, -26.28, -9.39
4.6400, -0.45, 0.85, 0.33, 82.62, -25.98, -12.50
4.6433, -0.47, 0.82, 0.35, 80.00, -25.18, -14.88
4.6467, -0.48, 0.82, 0.34, 77.56, -24.57, -17.01
4.6500, -0.48, 0.84, 0.35, 75.12, -23.78, -18.84
4.6533, -0.50, 0.82, 0.35, 72.62, -22.87, -20.12
4.6567, -0.52, 0.79, 0.36, 70.24, -21.77, -20.73
4.6600, -0.53, 0.79, 0.34, 68.23, -20.91, -21.04
4.6633, -0.54, 0.81, 0.34, 67.13, -20.18, -20.85
4.6667, -0.55, 0.80, 0.37, 65.85, -19.70, -19.94
4.6700, -0.53, 0.81, 0.36, 64.02, -19.02, -18.35
4.6733, -0.53, 0.81, 0.37, 62.87, -18.11, -16.34
4.6767, -0.54, 0.79, 0.36, 62.32, -17.68, -14.33
4.6800, -0.54, 0.80, 0.37, 62.44, -17.32, -12.68
4.6833, -0.53, 0.80, 0.37, 62.80, -17.74, -11.77
4.6867, -0.51, 0.80, 0.38, 63.23, -18.17, -11.28
4.6900, -0.51, 0.80, 0.36, 63.96, -18.41, -10.91
4.6933, -0.50, 0.80, 0.36, 64.94, -18.84, -11.34
4.6967, -0.50, 0.79, 0.36, 65.98, -19.33, -12.13
4.7000, -0.51, 0.80, 0.34, 66.83, -20.18, -13.23
4.7033, -0.47, 0.88, 0.32, 67.07, -20.91, -14.51
4.7067, -0.40, 0.76, 0.34, 65.43, -20.98, -15.24
4.7100, -0.42, 0.78, 0.34, 64.70, -20.18, -15.61
4.7133, -0.50, 0.83, 0.28, 66.28, -20.00, -17.32
4.7167, -0.54, 0.82, 0.31, 67.32, -21.16, -19.70
4.7200, -0.54, 0.80, 0.32, 66.83, -22.74, -20.98
4.7233, -0.54, 0.81, 0.33, 66.40, -23.90, -21.95
4.7267, -0.55, 0.81, 0.31, 66.65, -24.27, -22.93
4.7300, -0.58, 0.80, 0.28, 66.77, -23.90, -23.23
4.7333, -0.59, 0.82, 0.27, 66.71, -23.84, -23.05
4.7367, -0.61, 0.81, 0.28, 66.59, -24.51, -22.80
4.7400, -0.60, 0.81, 0.25, 65.85, -25.18, -22.38
4.7433, -0.58, 0.81, 0.25, 65.06, -25.67, -21.34
4.7467, -0.59, 0.81, 0.23, 63.72, -26.16, -20.12
4.7500, -0.58, 0.81, 0.25, 62.50, -26.34, -18.78
4.7533, -0.57, 0.81, 0.26, 61.22, -25.85, -17.20
4.7567, -0.56, 0.82, 0.26, 59.88, -25.18, -15.55
4.7600, -0.55, 0.82, 0.29, 58.35, -24.21, -14.02
4.7633, -0.52, 0.82, 0.30, 56.28, -23.11, -12.44
4.7667, -0.51, 0.82, 0.35, 54.27, -21.77, -11.10
4.7700, -0.51, 0.82, 0.37, 52.44, -20.18, -10.18
4.7733, -0.50, 0.79, 0.42, 51.10, -18.23, -9.63
4.7767, -0.53, 0.83, 0.40, 50.79, -16.65, -9.94
4.7800, -0.51, 0.83, 0.40, 51.22, -15.30, -11.10
4.7833, -0.50, 0.81, 0.40, 51.04, -15.00, -12.26
4.7867, -0.50, 0.81, 0.43, 51.34, -15.00, -13.41
4.7900, -0.50, 0.82, 0.40, 52.56, -15.24, -14.57
4.7933, -0.48, 0.84, 0.45, 53.90, -15.49, -15.85
4.7967, -0.56, 0.84, 0.40, 54.45, -16.22, -16.89
4.8000, -0.65, 0.88, 0.36, 55.43, -16.65, -17.99
4.8033, -0.60, 0.85, 0.30, 56.34, -17.87, -17.74
4.8067, -0.51, 0.90, 0.31, 55.98, -19.51, -16.83
4.8100, -0.54, 0.83, 0.42, 55.49, -20.00, -16.77
4.8133, -0.66, 0.74, 0.42, 55.85, -18.23, -16.16
4.8167, -0.69, 0.79, 0.39, 58.29, -16.10, -15.43
4.8200, -0.64, 0.79, 0.38, 61.59, -15.85, -15.61
4.8233, -0.56, 0.86, 0.27, 62.62, -17.50, -16.40
4.8267, -0.55, 0.83, 0.27, 61.59, -19.88, -16.95
4.8300, -0.52, 0.78, 0.29, 59.76, -20.91, -15.79
4.8333, -0.53, 0.79, 0.30, 57.74, -20.91, -14.63
4.8367, -0.56, 0.82, 0.26, 56.95, -20.37, -14.15
4.8400, -0.60, 0.80, 0.30, 55.79, -19.33, -13.60
4.8433, -0.60, 0.78, 0.30, 53.60, -17.99, -13.05
4.8467, -0.59, 0.80, 0.28, 51.16, -16.83, -12.38
4.8500, -0.60, 0.82, 0.30, 48.84, -15.73, -12.26
4.8533, -0.59, 0.81, 0.32, 46.04, -14.33, -12.01
4.8567, -0.56, 0.77, 0.30, 43.41, -12.93, -11.52
4.8600, -0.57, 0.79, 0.31, 41.65, -11.34, -11.46
4.8633, -0.60, 0.81, 0.33, 39.88, -9.63, -11.34
4.8667, -0.62, 0.81, 0.30, 38.29, -8.11, -11.10
4.8700, -0.61, 0.80, 0.30, 36.65, -7.50, -10.67
4.8733, -0.61, 0.81, 0.30, 34.33, -7.32, -9.94
4.8767, -0.60, 0.79, 0.28, 32.44, -7.38, -9.02
4.8800, -0.60, 0.78, 0.32, 30.98, -7.32, -8.05
4.8833, -0.61, 0.78, 0.33, 30.37, -6.52, -6.95
4.8867, -0.61, 0.79, 0.31, 29.94, -6.04, -5.91
4.8900, -0.61, 0.80, 0.35, 29.45, -5.73, -4.76
4.8933, -0.61, 0.77, 0.36, 28.96, -5.24, -3.60
4.8967, -0.61, 0.77, 0.35, 28.60, -5.00, -2.62
4.9000, -0.54, 0.82, 0.38, 2.80, -5.18, 1.89
4.9033, -0.53, 0.82, 0.38, 3.72, -4.82, 1.83
4.9067, -0.50, 0.82, 0.36, 4.63, -4.63, 1.89
4.9100, -0.50, 0.79, 0.38, 5.00, -4.27, 2.01
4.9133, -0.53, 0.81, 0.42, 5.55, -3.66, 2.32
4.9167, -0.56, 0.83, 0.41, 7.07, -3.17, 2.01
4.9200, -0.57, 0.82, 0.41, 8.48, -3.23, 1.46
4.9233, -0.54, 0.81, 0.39, 9.45, -3.23, 1.46
4.9267, -0.54, 0.83, 0.37, 10.06, -3.41, 1.52
4.9300, -0.52, 0.84, 0.34, 10.67, -3.54, 1.22
4.9333, -0.51, 0.84, 0.34, 11.10, -3.29, 1.10
4.9367, -0.50, 0.84, 0.30, 11.16, -2.93, 0.73
4.9400, -0.50, 0.85, 0.29, 11.16, -2.62, 0.06
4.9433, -0.51, 0.85, 0.30, 11.16, -2.26, -0.67
4.9467, -0.51, 0.84, 0.28, 11.10, -2.01, -1.40
4.9500, -0.52, 0.84, 0.27, 10.91, -2.07, -1.89
4.9533, -0.52, 0.85, 0.26, 10.49, -2.26, -2.44
4.9567, -0.53, 0.83, 0.28, 10.18, -2.74, -2.56
4.9600, -0.54, 0.82, 0.28, 9.51, -2.99, -2.56
4.9633, -0.54, 0.83, 0.28, 9.27, -3.35, -2.68
4.9667, -0.55, 0.83, 0.25, 9.15, -4.15, -3.41
4.9700, -0.54, 0.83, 0.28, 8.66, -5.06, -3.84
4.9733, -0.53, 0.83, 0.26, 7.93, -5.73, -4.15
4.9767, -0.53, 0.82, 0.27, 7.20, -6.04, -4.21
4.9800, -0.53, 0.82, 0.27, 6.46, -6.04, -4.15
4.9833, -0.52, 0.82, 0.27, 5.73, -5.91, -4.09
4.9867, -0.52, 0.83, 0.30, 5.06, -5.55, -3.84
4.9900, -0.49, 0.74, 0.34, 4.21, -4.88, -3.78
4.9933, -0.52, 0.82, 0.31, 3.54, -4.21, -3.90
4.9967, -0.52, 0.85, 0.34, 3.72, -3.11, -4.45
5.0000, -0.52, 0.83, 0.34, 3.84, -2.20, -5.24
5.0033, -0.51, 0.82, 0.35, 3.78, -1.59, -5.55
5.0067, -0.50, 0.82, 0.35, 3.96, -1.04, -5.67
5.0100, -0.50, 0.83, 0.37, 4.27, -0.18, -5.79
5.0133, -0.52, 0.83, 0.35, 5.06, 0.67, -5.67
5.0167, -0.51, 0.84, 0.35, 6.04, 1.22, -5.61
5.0200, -0.52, 0.83, 0.36, 6.71, 1.40, -5.49
5.0233, -0.52, 0.85, 0.33, 7.87, 1.59, -5.37
5.0267, -0.52, 0.84, 0.35, 8.78, 1.77, -5.24
5.0300, -0.53, 0.82, 0.33, 9.39, 1.83, -4.51
5.0333, -0.54, 0.83, 0.32, 10.12, 1.71, -3.90
5.0367, -0.54, 0.84, 0.31, 10.91, 1.34, -3.60
5.0400, -0.54, 0.83, 0.29, 11.28, 0.98, -3.29
5.0433, -0.54, 0.82, 0.29, 11.40, 0.61, -2.68
5.0467, -0.55, 0.81, 0.26, 11.40, 0.12, -2.07
5.0500, -0.54, 0.80, 0.29, 11.28, -0.24, -1.59
5.0533, -0.54, 0.80, 0.28, 10.79, -0.61, -0.85
5.0567, -0.54, 0.79, 0.25, 10.30, -1.04, -0.49
5.0600, -0.55, 0.79, 0.26, 9.82, -1.28, -0.18
5.0633, -0.55, 0.79, 0.27, 9.27, -1.40, 0.00
5.0667, -0.54, 0.78, 0.27, 8.54, -1.59, 0.18
5.0700, -0.54, 0.77, 0.28, 8.17, -1.89, 0.30
5.0733, -0.54, 0.77, 0.28, 7.93, -2.07, 0.43
5.0767, -0.55, 0.78, 0.29, 7.50, -2.26, 0.55
5.0800, -0.54, 0.77, 0.29, 7.44, -2.44, 0.49
5.0833, -0.54, 0.78, 0.29, 7.56, -2.68, 0.61
5.0867, -0.53, 0.78, 0.31, 7.62, -2.80, 0.73
5.0900, -0.52, 0.79, 0.31, 7.68, -2.74, 0.73
5.0933, -0.50, 0.80, 0.32, 7.80, -2.50, 0.91
5.0967, -0.49, 0.81, 0.32, 7.87, -2.01, 1.16
5.1000, -0.49, 0.83, 0.35, 7.74, -1.10, 1.28
5.1033, -0.47, 0.84, 0.33, 7.74, 0.24, 1.46
5.1067, -0.48, 0.85, 0.34, 7.68, 1.95, 1.28
5.1100, -0.46, 0.85, 0.34, 7.50, 3.66, 0.85
5.1133, -0.47, 0.86, 0.33, 7.56, 5.37, 0.37
5.1167, -0.48, 0.87, 0.33, 7.44, 7.20, -0.24
5.1200, -0.48, 0.86, 0.32, 7.13, 8.54, -0.73
5.1233, -0.49, 0.86, 0.31, 6.83, 9.94, -1.10
5.1267, -0.49, 0.86, 0.29, 6.59, 10.79, -1.40
5.1300, -0.50, 0.83, 0.31, 6.22, 11.34, -1.52
5.1333, -0.51, 0.85, 0.30, 6.10, 11.83, -1.52
5.1367, -0.51, 0.82, 0.30, 6.16, 12.07, -1.40
5.1400, -0.51, 0.83, 0.29, 6.34, 11.95, -1.22
5.1433, -0.52, 0.85, 0.27, 6.89, 11.59, -1.34
5.1467, -0.51, 0.83, 0.29, 7.32, 10.85, -1.46
5.1500, -0.51, 0.81, 0.27, 7.80, 9.88, -1.65
5.1533, -0.52, 0.82, 0.27, 8.35, 8.84, -1.89
5.1567, -0.53, 0.92, 0.27, 8.96, 7.74, -2.32
5.1600, -0.56, 0.86, 0.28, 8.11, 6.83, -2.32
5.1633, -0.61, 0.81, 0.33, 5.98, 6.46, -1.71
5.1667, -0.58, 0.81, 0.26, 6.34, 6.34, -1.59
5.1700, -0.54, 0.80, 0.22, 7.38, 5.49, -2.32
5.1733, -0.52, 0.80, 0.21, 7.68, 4.21, -2.56
5.1767, -0.51, 0.80, 0.20, 7.56, 2.80, -1.95
5.1800, -0.50, 0.80, 0.20, 7.26, 1.34, -1.04
5.1833, -0.52, 0.81, 0.21, 7.26, 0.73, -0.24
5.1867, -0.51, 0.80, 0.24, 7.20, 0.67, 0.67
5.1900, -0.51, 0.81, 0.25, 6.83, 0.85, 1.52
5.1933, -0.51, 0.82, 0.26, 6.59, 1.28, 1.65
5.1967, -0.50, 0.82, 0.31, 6.34, 1.89, 1.34
5.2000, -0.49, 0.83, 0.29, 5.85, 2.68, 1.28
5.2033, -0.50, 0.81, 0.31, 5.55, 3.84, 0.98
5.2067, -0.50, 0.83, 0.31, 5.30, 5.61, 1.04
5.2100, -0.51, 0.84, 0.32, 4.82, 7.50, 1.22
5.2133, -0.51, 0.81, 0.31, 4.27, 8.96, 1.34
5.2167, -0.51, 0.82, 0.31, 4.33, 10.37, 1.10
5.2200, -0.51, 0.82, 0.30, 4.88, 11.65, 0.55
5.2233, -0.52, 0.81, 0.32, 5.37, 12.50, 0.12
5.2267, -0.51, 0.81, 0.29, 5.67, 12.87, -0.24
5.2300, -0.52, 0.82, 0.29, 6.10, 12.87, -0.55
5.2333, -0.48, 0.82, 0.29, 6.89, 12.56, -0.79
5.2367, -0.49, 0.79, 0.30, 6.65, 12.44, -0.79
5.2400, -0.50, 0.81, 0.28, 6.65, 12.50, -0.43
5.2433, -0.50, 0.82, 0.29, 7.44, 12.20, -0.79
5.2467, -0.51, 0.83, 0.29, 8.72, 11.40, -1.77
5.2500, -0.51, 0.84, 0.28, 9.33, 10.24, -2.38
5.2533, -0.51, 0.84, 0.28, 9.45, 8.90, -2.56
5.2567, -0.51, 0.84, 0.24, 9.94, 7.80, -2.80
5.2600, -0.51, 0.83, 0.25, 10.67, 7.01, -2.99
5.2633, -0.52, 0.85, 0.26, 11.28, 6.22, -3.23
5.2667, -0.52, 0.85, 0.25, 11.46, 5.37, -3.48
5.2700, -0.52, 0.84, 0.24, 11.52, 4.51, -3.66
5.2733, -0.52, 0.84, 0.24, 11.28, 3.96, -3.90
5.2767, -0.52, 0.84, 0.25, 10.91, 3.48, -4.21
5.2800, -0.53, 0.82, 0.23, 10.67, 3.17, -4.33
5.2833, -0.53, 0.81, 0.24, 10.43, 2.99, -4.39
5.2867, -0.54, 0.81, 0.25, 10.24, 2.93, -4.57
5.2900, -0.56, 0.80, 0.24, 10.12, 2.68, -4.51
5.2933, -0.56, 0.79, 0.26, 10.00, 2.44, -4.15
5.2967, -0.56, 0.79, 0.27, 9.94, 2.26, -3.60
5.3000, -0.56, 0.79, 0.29, 9.88, 2.01, -2.99
5.3033, -0.55, 0.79, 0.29, 9.94, 2.07, -2.20
5.3067, -0.55, 0.78, 0.28, 10.24, 2.32, -1.52
5.3100, -0.55, 0.79, 0.30, 10.49, 2.74, -1.04
5.3133, -0.54, 0.80, 0.29, 10.73, 3.41, -0.85
5.3167, -0.54, 0.81, 0.29, 10.91, 4.02, -0.73
5.3200, -0.53, 0.81, 0.29, 11.10, 4.82, -0.98
5.3233, -0.53, 0.81, 0.27, 11.10, 5.73, -1.34
5.3267, -0.53, 0.81, 0.28, 10.98, 6.52, -1.52
5.3300, -0.53, 0.82, 0.28, 10.98, 6.95, -1.83
5.3333, -0.55, 0.82, 0.25, 10.91, 7.32, -2.01
5.3367, -0.54, 0.82, 0.23, 10.79, 7.50, -2.13
5.3400, -0.55, 0.83, 0.23, 10.67, 7.56, -2.13
5.3433, -0.55, 0.82, 0.23, 10.49, 7.44, -2.20
5.3467, -0.55, 0.82, 0.24, 10.43, 6.89, -2.20
5.3500, -0.56, 0.83, 0.22, 10.12, 6.40, -2.07
5.3533, -0.55, 0.83, 0.21, 9.88, 5.98, -1.77
5.3567, -0.55, 0.82, 0.21, 9.57, 5.06, -1.46
5.3600, -0.55, 0.83, 0.22, 9.27, 4.45, -1.22
5.3633, -0.53, 0.84, 0.23, 8.96, 3.72, -1.22
5.3667, -0.52, 0.84, 0.21, 8.35, 2.99, -1.34
5.3700, -0.51, 0.86, 0.23, 7.38, 2.56, -1.65
5.3733, -0.50, 0.86, 0.24, 6.59, 2.38, -2.20
5.3767, -0.50, 0.87, 0.25, 5.73, 2.44, -2.68
5.3800, -0.50, 0.86, 0.26, 4.88, 2.87, -3.05
5.3833, -0.50, 0.86, 0.27, 4.33, 3.54, -3.41
5.3867, -0.49, 0.85, 0.28, 3.72, 4.45, -3.78
5.3900, -0.50, 0.86, 0.29, 3.29, 5.43, -4.33
5.3933, -0.51, 0.85, 0.28, 3.23, 6.10, -4.51
5.3967, -0.52, 0.85, 0.28, 3.29, 6.65, -4.94
5.4000, -0.53, 0.83, 0.29, 3.84, 6.77, -5.30
5.4033, -0.54, 0.82, 0.30, 4.39, 6.71, -5.43
5.4067, -0.54, 0.81, 0.31, 5.12, 6.46, -5.55
5.4100, -0.55, 0.81, 0.30, 6.34, 5.98, -5.37
5.4133, -0.56, 0.81, 0.28, 7.44, 5.49, -5.06
5.4167, -0.58, 0.80, 0.28, 8.48, 4.88, -4.82
5.4200, -0.57, 0.81, 0.26, 9.15, 4.27, -4.57
5.4233, -0.58, 0.82, 0.26, 9.82, 3.84, -4.27
5.4267, -0.57, 0.82, 0.26, 10.30, 3.35, -3.96
5.4300, -0.58, 0.81, 0.23, 10.24, 3.17, -3.41
5.4333, -0.59, 0.81, 0.23, 9.94, 2.87, -2.80
5.4367, -0.59, 0.81, 0.21, 9.57, 2.74, -2.07
5.4400, -0.59, 0.82, 0.21, 9.02, 2.62, -1.40
5.4433, -0.59, 0.82, 0.22, 8.41, 2.38, -0.67
5.4467, -0.59, 0.83, 0.23, 7.74, 2.26, 0.12
5.4500, -0.57, 0.81, 0.24, 7.07, 2.20, 0.61
5.4533, -0.57, 0.81, 0.24, 6.40, 2.07, 0.85
5.4567, -0.57, 0.82, 0.24, 5.61, 1.89, 1.04
5.4600, -0.56, 0.82, 0.24, 5.12, 1.77, 0.85
5.4633, -0.53, 0.82, 0.22, 4.94, 1.71, 0.55
5.4667, -0.51, 0.84, 0.25, 4.88, 1.65, -0.43
5.4700, -0.51, 0.83, 0.25, 4.94, 1.77, -1.34
5.4733, -0.54, 0.84, 0.26, 4.88, 1.65, -2.56
5.4767, -0.53, 0.84, 0.24, 4.76, 1.52, -3.41
5.4800, -0.52, 0.83, 0.30, 4.70, 1.34, -4.15
5.4833, -0.54, 0.83, 0.27, 5.00, 1.34, -4.70
5.4867, -0.54, 0.83, 0.28, 5.37, 1.46, -4.76
5.4900, -0.56, 0.83, 0.24, 5.37, 1.71, -4.70
5.4933, -0.56, 0.82, 0.27, 5.55, 1.71, -4.45
5.4967, -0.56, 0.81, 0.25, 5.73, 1.46, -4.15
5.5000, -0.55, 0.82, 0.25, 5.98, 1.34, -3.72
5.5033, -0.55, 0.83, 0.22, 5.67, 1.34, -3.29
5.5067, -0.54, 0.85, 0.26, 5.67, 0.98, -3.11
5.5100, -0.55, 0.83, 0.22, 5.73, 0.61, -3.17
5.5133, -0.55, 0.83, 0.22, 5.61, 0.12, -3.11
5.5167, -0.55, 0.82, 0.21, 5.55, -0.24, -2.87
5.5200, -0.54, 0.83, 0.22, 5.18, -0.55, -2.62
5.5233, -0.54, 0.83, 0.22, 4.82, -0.73, -2.44
5.5267, -0.54, 0.84, 0.25, 4.63, -0.79, -2.26
5.5300, -0.53, 0.82, 0.25, 4.33, -0.67, -2.01
5.5333, -0.47, 0.82, 0.35, 4.09, -0.24, -1.59
5.5367, -0.48, 0.81, 0.22, 4.70, 1.46, -1.04
5.5400, -0.54, 0.91, 0.03, 5.55, 4.33, -0.37
5.5433, -0.47, 0.87, 0.22, 3.90, 5.85, -0.43
5.5467, -0.45, 0.87, 0.25, 0.24, 4.63, -1.46
5.5500, -0.52, 0.80, 0.21, 0.49, 4.88, -2.32
5.5533, -0.59, 0.82, 0.25, 0.73, 6.04, -3.05
5.5567, -0.62, 0.83, 0.27, 0.67, 5.55, -2.74
5.5600, -0.64, 0.81, 0.28, 0.73, 4.70, -2.44
5.5633, -0.61, 0.78, 0.27, 0.12, 4.70, -1.95
5.5667, -0.60, 0.80, 0.26, 0.37, 4.33, -0.91
5.5700, -0.60, 0.82, 0.26, 0.67, 3.78, -0.98
5.5733, -0.59, 0.79, 0.26, 1.04, 2.93, -0.91
5.5767, -0.57, 0.79, 0.25, 1.40, 1.89, -0.30
5.5800, -0.57, 0.79, 0.22, 1.65, 0.85, 0.30
5.5833, -0.57, 0.79, 0.21, 2.01, 0.00, 1.04
5.5867, -0.57, 0.79, 0.20, 2.32, -0.61, 2.38
5.5900, -0.57, 0.79, 0.21, 2.56, -0.91, 3.84
5.5933, -0.55, 0.80, 0.20, 2.74, -1.40, 4.82
5.5967, -0.53, 0.81, 0.22, 2.87, -1.71, 6.04
5.6000, -0.55, 0.81, 0.26, -7.44, 5.98, -2.07
5.6033, -0.55, 0.80, 0.25, -7.32, 6.34, -2.26
5.6067, -0.54, 0.81, 0.27, -6.77, 6.59, -2.38
5.6100, -0.57, 0.78, 0.28, -5.98, 6.59, -2.32
5.6133, -0.58, 0.76, 0.28, -5.67, 6.83, -1.89
5.6167, -0.60, 0.78, 0.28, -4.09, 7.13, -1.59
5.6200, -0.59, 0.79, 0.29, -2.01, 6.52, -1.77
5.6233, -0.57, 0.79, 0.30, 0.00, 5.37, -1.71
5.6267, -0.56, 0.80, 0.27, 1.83, 3.78, -1.46
5.6300, -0.56, 0.79, 0.28, 3.41, 2.62, -1.22
5.6333, -0.56, 0.79, 0.27, 5.43, 1.65, -0.79
5.6367, -0.57, 0.80, 0.25, 7.62, 0.79, -0.55
5.6400, -0.57, 0.81, 0.25, 9.82, -0.24, -0.49
5.6433, -0.56, 0.80, 0.23, 11.34, -1.65, -0.55
5.6467, -0.56, 0.80, 0.23, 12.56, -2.68, -0.49
5.6500, -0.56, 0.81, 0.23, 13.48, -3.72, -0.49
5.6533, -0.56, 0.82, 0.21, 14.45, -4.51, -0.73
5.6567, -0.56, 0.82, 0.19, 14.82, -5.06, -0.55
5.6600, -0.56, 0.82, 0.18, 15.00, -5.30, -0.43
5.6633, -0.58, 0.83, 0.19, 14.51, -5.61, -0.24
5.6667, -0.56, 0.83, 0.18, 13.66, -5.73, -0.12
5.6700, -0.56, 0.84, 0.16, 12.68, -5.67, 0.30
5.6733, -0.57, 0.83, 0.16, 11.46, -5.43, 0.79
5.6767, -0.56, 0.83, 0.17, 9.63, -5.06, 1.28
5.6800, -0.55, 0.83, 0.18, 7.93, -4.51, 1.65
5.6833, -0.55, 0.83, 0.17, 6.04, -3.78, 2.13
5.6867, -0.54, 0.84, 0.19, 3.96, -2.93, 2.38
5.6900, -0.53, 0.84, 0.20, 2.26, -2.01, 2.62
5.6933, -0.54, 0.84, 0.21, 0.30, -1.04, 2.99
5.6967, -0.53, 0.84, 0.22, -1.34, 0.00, 3.17
5.7000, -0.54, 0.84, 0.21, -2.74, 0.98, 3.23
5.7033, -0.53, 0.84, 0.21, -3.78, 2.07, 3.11
5.7067, -0.53, 0.83, 0.22, -4.45, 2.80, 2.87
5.7100, -0.53, 0.83, 0.23, -5.00, 3.66, 2.62
5.7133, -0.54, 0.82, 0.23, -5.12, 4.33, 2.38
5.7167, -0.54, 0.82, 0.25, -4.51, 4.76, 2.26
5.7200, -0.53, 0.84, 0.25, -4.02, 4.88, 2.32
5.7233, -0.51, 0.79, 0.24, -4.21, 5.24, 2.80
5.7267, -0.52, 0.81, 0.24, -3.90, 5.67, 3.54
5.7300, -0.54, 0.81, 0.24, -2.20, 5.49, 3.78
5.7333, -0.52, 0.82, 0.22, -0.55, 4.51, 3.60
5.7367, -0.51, 0.82, 0.24, 0.79, 3.17, 3.72
5.7400, -0.52, 0.82, 0.24, 1.95, 1.71, 3.66
5.7433, -0.52, 0.81, 0.24, 3.11, 0.79, 3.90
5.7467, -0.52, 0.81, 0.23, 4.88, -0.06, 4.09
5.7500, -0.51, 0.84, 0.23, 6.52, -1.46, 3.78
5.7533, -0.51, 0.83, 0.24, 7.80, -2.99, 3.35
5.7567, -0.51, 0.84, 0.23, 8.60, -4.09, 2.87
5.7600, -0.51, 0.84, 0.24, 9.21, -5.24, 2.32
5.7633, -0.51, 0.85, 0.23, 9.76, -5.98, 1.52
5.7667, -0.50, 0.86, 0.22, 10.24, -6.16, 0.61
5.7700, -0.50, 0.85, 0.22, 10.61, -6.10, -0.18
5.7733, -0.51, 0.86, 0.21, 10.55, -5.98, -1.10
5.7767, -0.52, 0.86, 0.20, 10.12, -5.85, -1.83
5.7800, -0.52, 0.86, 0.21, 9.51, -5.79, -2.62
5.7833, -0.52, 0.85, 0.19, 8.96, -5.61, -3.23
5.7867, -0.53, 0.84, 0.19, 7.99, -5.37, -3.54
5.7900, -0.54, 0.84, 0.19, 6.95, -5.18, -3.72
5.7933, -0.54, 0.85, 0.19, 5.98, -4.88, -3.78
5.7967, -0.55, 0.85, 0.18, 4.94, -4.70, -3.78
5.8000, -0.55, 0.85, 0.18, 3.78, -4.45, -3.60
5.8033, -0.56, 0.83, 0.18, 2.62, -4.15, -3.35
5.8067, -0.56, 0.83, 0.17, 1.46, -3.96, -2.74
5.8100, -0.57, 0.82, 0.18, 0.55, -3.78, -2.13
5.8133, -0.56, 0.82, 0.19, -0.37, -3.72, -1.59
5.8167, -0.56, 0.82, 0.19, -1.52, -3.78, -0.98
5.8200, -0.55, 0.82, 0.20, -2.38, -3.78, -0.30
5.8233, -0.55, 0.82, 0.21, -3.41, -3.41, 0.43
5.8267, -0.54, 0.83, 0.23, -4.33, -2.87, 1.10
5.8300, -0.53, 0.82, 0.25, -5.12, -2.07, 1.77
5.8333, -0.53, 0.83, 0.25, -5.85, -1.16, 2.32
5.8367, -0.51, 0.83, 0.26, -6.65, 0.43, 2.56
5.8400, -0.51, 0.84, 0.27, -7.13, 2.07, 2.68
5.8433, -0.50, 0.83, 0.27, -7.20, 3.60, 2.74
5.8467, -0.49, 0.83, 0.27, -6.71, 4.70, 2.50
5.8500, -0.50, 0.83, 0.29, -5.98, 5.61, 2.07
5.8533, -0.49, 0.86, 0.28, -5.12, 5.79, 1.52
5.8567, -0.47, 0.82, 0.27, -4.33, 5.85, 0.98
5.8600, -0.48, 0.83, 0.25, -3.72, 5.85, 0.67
5.8633, -0.49, 0.84, 0.23, -2.26, 5.43, -0.18
5.8667, -0.49, 0.83, 0.25, -0.43, 4.21, -1.28
5.8700, -0.48, 0.84, 0.24, 1.28, 2.62, -2.20
5.8733, -0.50, 0.83, 0.24, 2.56, 1.22, -3.23
5.8767, -0.51, 0.83, 0.24, 3.78, -0.06, -4.15
5.8800, -0.54, 0.82, 0.24, 5.00, -1.22, -4.70
5.8833, -0.54, 0.83, 0.23, 6.22, -2.26, -5.24
5.8867, -0.55, 0.84, 0.23, 7.26, -3.17, -5.61
5.8900, -0.55, 0.84, 0.21, 7.74, -4.15, -5.98
5.8933, -0.55, 0.84, 0.22, 7.99, -4.88, -5.98
5.8967, -0.55, 0.84, 0.19, 8.05, -5.43, -5.91
5.9000, -0.56, 0.84, 0.21, 7.87, -5.91, -5.67
5.9033, -0.56, 0.85, 0.18, 7.26, -6.10, -5.18
5.9067, -0.56, 0.85, 0.19, 6.40, -5.98, -4.94
5.9100, -0.56, 0.85, 0.17, 5.18, -5.85, -4.63
5.9133, -0.56, 0.84, 0.19, 3.78, -5.61, -4.33
5.9167, -0.56, 0.84, 0.18, 2.20, -5.24, -4.09
5.9200, -0.55, 0.85, 0.19, 0.73, -4.63, -3.78
5.9233, -0.55, 0.84, 0.21, -0.79, -3.90, -3.48
5.9267, -0.54, 0.83, 0.22, -2.38, -3.11, -3.35
5.9300, -0.55, 0.84, 0.22, -3.84, -2.07, -3.23
5.9333, -0.54, 0.82, 0.21, -4.94, -0.98, -2.87
5.9367, -0.55, 0.82, 0.24, -5.98, 0.06, -2.74
5.9400, -0.55, 0.82, 0.24, -6.71, 0.85, -2.74
5.9433, -0.56, 0.81, 0.23, -7.01, 1.46, -2.62
5.9467, -0.56, 0.82, 0.24, -7.26, 1.95, -2.50
5.9500, -0.55, 0.81, 0.24, -7.20, 2.26, -2.20
5.9533, -0.53, 0.81, 0.26, -7.20, 2.62, -1.83
5.9567, -0.54, 0.81, 0.25, -6.59, 2.44, -1.65
5.9600, -0.55, 0.80, 0.25, -5.91, 2.26, -1.59
5.9633, -0.54, 0.81, 0.25, -5.24, 1.65, -1.34
5.9667, -0.54, 0.80, 0.27, -4.39, 0.85, -1.04
5.9700, -0.55, 0.81, 0.26, -3.60, 0.18, -1.04
5.9733, -0.56, 0.80, 0.25, -2.68, -0.12, -0.85
5.9767, -0.55, 0.81, 0.26, -1.59, -0.55, -0.61
5.9800, -0.56, 0.82, 0.26, -0.61, -0.91, -0.61
5.9833, -0.56, 0.81, 0.24, -0.06, -1.65, -0.61
5.9867, -0.56, 0.81, 0.24, 0.55, -2.38, -0.61
5.9900, -0.56, 0.81, 0.25, 1.10, -2.93, -0.49
5.9933, -0.55, 0.82, 0.25, 1.52, -3.41, -0.18
5.9967, -0.56, 0.82, 0.24, 1.77, -3.66, -0.12
6.0000, -0.56, 0.83, 0.24, 2.01, -4.15, -0.06
6.0033, -0.55, 0.83, 0.23, 1.83, -4.57, 0.00
6.0067, -0.54, 0.83, 0.22, 1.65, -5.00, 0.12
6.0100, -0.54, 0.84, 0.25, 1.40, -5.06, 0.00
6.0133, -0.54, 0.83, 0.23, 1.28, -5.00, -0.06
6.0167, -0.53, 0.84, 0.24, 0.85, -4.63, -0.30
6.0200, -0.53, 0.84, 0.24, 0.37, -4.33, -0.49
6.0233, -0.53, 0.84, 0.24, -0.12, -3.72, -0.73
6.0267, -0.53, 0.83, 0.26, -0.79, -3.29, -0.98
6.0300, -0.53, 0.83, 0.25, -1.22, -2.74, -1.16
6.0333, -0.53, 0.84, 0.25, -1.59, -2.01, -1.28
6.0367, -0.53, 0.83, 0.25, -1.83, -1.28, -1.52
6.0400, -0.54, 0.84, 0.26, -2.20, -0.43, -1.52
6.0433, -0.55, 0.83, 0.25, -2.44, 0.30, -1.59
6.0467, -0.54, 0.82, 0.26, -2.44, 0.85, -1.71
6.0500, -0.55, 0.82, 0.26, -2.32, 1.46, -1.77
6.0533, -0.55, 0.81, 0.26, -2.07, 1.83, -1.77
6.0567, -0.55, 0.81, 0.25, -1.52, 2.26, -1.71
6.0600, -0.56, 0.80, 0.26, -0.91, 2.26, -1.52
6.0633, -0.57, 0.81, 0.24, -0.18, 1.95, -1.34
6.0667, -0.56, 0.80, 0.24, 0.49, 1.28, -1.10
6.0700, -0.56, 0.80, 0.26, 1.34, 0.55, -0.73
6.0733, -0.58, 0.81, 0.26, 2.07, 0.00, -0.61
6.0767, -0.59, 0.77, 0.25, 2.99, -0.55, -0.24
6.0800, -0.61, 0.79, 0.22, 3.54, -1.16, 0.30
6.0833, -0.60, 0.74, 0.23, 3.72, -1.83, 1.89
6.0867, -0.60, 0.75, 0.28, 2.32, -3.29, 3.48
6.0900, -0.61, 0.76, 0.29, 2.87, -4.57, 4.51
6.0933, -0.63, 0.81, 0.27, 5.00, -4.21, 5.06
6.0967, -0.60, 0.83, 0.24, 5.43, -3.11, 5.49
6.1000, -0.55, 0.85, 0.24, 4.70, -3.05, 5.55
6.1033, -0.52, 0.83, 0.21, 4.21, -3.72, 4.57
6.1067, -0.50, 0.82, 0.20, 3.84, -4.27, 3.60
6.1100, -0.48, 0.84, 0.19, 2.80, -4.57, 3.23
6.1133, -0.50, 0.84, 0.19, 1.83, -4.76, 2.99
6.1167, -0.51, 0.84, 0.19, 1.04, -4.82, 3.05
6.1200, -0.52, 0.83, 0.21, 0.55, -4.39, 3.35
6.1233, -0.53, 0.83, 0.23, 0.30, -4.15, 3.60
6.1267, -0.52, 0.83, 0.23, 0.24, -3.72, 3.54
6.1300, -0.53, 0.82, 0.25, 0.12, -3.66, 3.66
6.1333, -0.51, 0.83, 0.24, 0.18, -3.84, 3.66
6.1367, -0.52, 0.83, 0.26, 0.30, -4.15, 3.35
6.1400, -0.53, 0.82, 0.28, 0.49, -4.15, 3.23
6.1433, -0.53, 0.82, 0.27, 0.73, -4.09, 3.05
6.1467, -0.55, 0.82, 0.27, 1.34, -4.09, 2.80
6.1500, -0.55, 0.81, 0.27, 1.77, -3.90, 2.68
6.1533, -0.56, 0.78, 0.26, 1.65, -3.90, 3.41
6.1567, -0.53, 0.81, 0.26, 1.83, -4.02, 3.66
6.1600, -0.53, 0.82, 0.28, 2.74, -3.90, 3.48
6.1633, -0.53, 0.83, 0.26, 3.35, -3.11, 3.11
6.1667, -0.52, 0.83, 0.25, 3.48, -2.50, 2.62
6.1700, -0.51, 0.84, 0.24, 3.41, -1.95, 2.13
6.1733, -0.49, 0.84, 0.24, 3.05, -1.40, 1.71
6.1767, -0.49, 0.85, 0.26, 2.62, -0.73, 1.59
6.1800, -0.51, 0.86, 0.25, 2.07, 0.00, 1.40
6.1833, -0.52, 0.84, 0.24, 1.83, 0.55, 1.16
6.1867, -0.52, 0.84, 0.24, 1.65, 1.28, 0.98
6.1900, -0.53, 0.84, 0.25, 1.46, 1.71, 0.98
6.1933, -0.51, 0.85, 0.27, 1.40, 1.89, 0.85
6.1967, -0.52, 0.85, 0.25, 1.16, 2.13, 0.85
6.2000, -0.51, 0.84, 0.23, 0.73, 2.50, 0.79
6.2033, -0.53, 0.84, 0.23, 1.04, 2.44, 0.37
6.2067, -0.53, 0.83, 0.22, 1.59, 2.13, -0.12
6.2100, -0.54, 0.82, 0.23, 1.71, 1.65, -0.24
6.2133, -0.54, 0.83, 0.22, 1.77, 0.85, -0.12
6.2167, -0.55, 0.82, 0.23, 1.95, 0.18, 0.12
6.2200, -0.55, 0.83, 0.22, 2.26, -0.49, 0.43
6.2233, -0.56, 0.83, 0.22, 2.50, -0.91, 0.61
6.2267, -0.56, 0.82, 0.22, 2.50, -1.65, 0.79
6.2300, -0.55, 0.83, 0.22, 2.56, -2.20, 0.98
6.2333, -0.55, 0.82, 0.21, 2.26, -2.74, 1.04
6.2367, -0.54, 0.84, 0.20, 2.07, -3.17, 0.91
6.2400, -0.54, 0.83, 0.22, 1.95, -3.48, 0.79
6.2433, -0.53, 0.84, 0.21, 1.65, -3.60, 0.67
6.2467, -0.54, 0.83, 0.22, 1.46, -3.72, 0.49
6.2500, -0.53, 0.84, 0.23, 1.22, -3.66, 0.30
6.2533, -0.53, 0.83, 0.24, 0.85, -3.78, 0.37
6.2567, -0.52, 0.85, 0.25, 0.49, -3.72, 0.49
6.2600, -0.52, 0.84, 0.27, 0.37, -3.35, 0.55
6.2633, -0.52, 0.85, 0.27, 0.43, -2.74, 0.61
6.2667, -0.52, 0.84, 0.27, 0.55, -2.07, 0.61
6.2700, -0.52, 0.85, 0.28, 0.37, -1.22, 0.55
6.2733, -0.53, 0.84, 0.27, 0.55, -0.55, 0.49
6.2767, -0.53, 0.83, 0.27, 1.04, 0.18, 0.37
6.2800, -0.53, 0.82, 0.26, 1.34, 0.91, 0.12
6.2833, -0.54, 0.83, 0.25, 1.59, 1.22, 0.06
6.2867, -0.54, 0.83, 0.25, 2.20, 1.28, -0.18
6.2900, -0.55, 0.83, 0.25, 2.68, 1.22, -0.18
6.2933, -0.55, 0.83, 0.24, 2.99, 1.04, -0.30
6.2967, -0.55, 0.84, 0.23, 3.17, 0.67, -0.18
6.3000, -0.55, 0.84, 0.21, 3.29, 0.18, -0.06
6.3033, -0.55, 0.83, 0.22, 3.29, 0.06, 0.18
6.3067, -0.55, 0.83, 0.22, 3.23, -0.18, 0.24
6.3100, -0.56, 0.83, 0.20, 3.17, -0.49, 0.12
6.3133, -0.54, 0.83, 0.22, 2.87, -0.67, 0.00
6.3167, -0.55, 0.83, 0.21, 2.50, -0.98, -0.24
6.3200, -0.56, 0.82, 0.22, 2.26, -1.28, -0.43
6.3233, -0.56, 0.83, 0.21, 1.89, -1.59, -0.61
6.3267, -0.56, 0.82, 0.20, 1.71, -2.01, -0.49
6.3300, -0.55, 0.81, 0.21, 1.40, -2.56, -0.43
6.3333, -0.55, 0.82, 0.23, 1.34, -2.93, -0.30
6.3367, -0.55, 0.81, 0.22, 1.22, -3.35, -0.18
6.3400, -0.55, 0.82, 0.23, 1.10, -3.41, -0.24
6.3433, -0.55, 0.83, 0.24, 1.10, -3.54, -0.18
6.3467, -0.55, 0.81, 0.23, 1.04, -3.78, -0.37
6.3500, -0.55, 0.82, 0.23, 1.10, -3.72, -0.43
6.3533, -0.55, 0.83, 0.23, 1.16, -3.90, -0.43
6.3567, -0.54, 0.83, 0.22, 0.98, -3.90, -0.43
6.3600, -0.54, 0.82, 0.23, 0.67, -3.90, -0.30
6.3633, -0.54, 0.83, 0.25, 0.55, -3.78, -0.24
6.3667, -0.53, 0.83, 0.24, 0.30, -3.60, -0.12
6.3700, -0.52, 0.83, 0.26, 0.00, -3.29, -0.12
6.3733, -0.52, 0.83, 0.27, -0.37, -2.68, -0.12
6.3767, -0.53, 0.83, 0.28, -0.43, -1.89, -0.12
6.3800, -0.53, 0.83, 0.27, -0.61, -0.85, -0.18
6.3833, -0.53, 0.82, 0.29, -0.73, 0.30, -0.30
6.3867, -0.54, 0.82, 0.28, -0.55, 1.28, -0.49
6.3900, -0.54, 0.82, 0.29, -0.24, 2.07, -0.49
6.3933, -0.53, 0.81, 0.29, 0.24, 2.62, -0.61
6.3967, -0.54, 0.80, 0.30, 0.85, 2.99, -0.73
6.4000, -0.54, 0.82, 0.26, 7.80, -1.95, -2.87
6.4033, -0.54, 0.82, 0.24, 8.41, -2.07, -2.99
6.4067, -0.55, 0.82, 0.25, 8.66, -2.20, -3.17
6.4100, -0.55, 0.82, 0.25, 8.72, -1.95, -3.11
6.4133, -0.56, 0.82, 0.23, 8.66, -1.77, -3.11
6.4167, -0.55, 0.83, 0.22, 8.41, -1.52, -3.11
6.4200, -0.56, 0.82, 0.23, 7.99, -1.28, -2.99
6.4233, -0.57, 0.81, 0.22, 7.44, -0.98, -2.93
6.4267, -0.57, 0.82, 0.21, 6.83, -0.61, -2.68
6.4300, -0.57, 0.82, 0.21, 6.10, -0.24, -2.38
6.4333, -0.56, 0.82, 0.21, 5.12, -0.12, -2.01
6.4367, -0.56, 0.82, 0.21, 4.27, -0.06, -1.59
6.4400, -0.56, 0.82, 0.21, 3.54, 0.12, -1.04
6.4433, -0.55, 0.82, 0.21, 2.56, 0.24, -0.73
6.4467, -0.55, 0.82, 0.23, 1.52, 0.55, -0.49
6.4500, -0.54, 0.82, 0.21, 0.67, 0.91, -0.24
6.4533, -0.55, 0.82, 0.20, -0.06, 1.40, -0.24
6.4567, -0.55, 0.82, 0.23, -0.85, 1.89, -0.24
6.4600, -0.55, 0.82, 0.24, -1.34, 2.38, -0.43
6.4633, -0.55, 0.82, 0.24, -1.65, 2.87, -0.49
6.4667, -0.56, 0.81, 0.23, -1.89, 3.23, -0.61
6.4700, -0.55, 0.82, 0.24, -2.32, 3.35, -0.67
6.4733, -0.55, 0.82, 0.23, -2.44, 3.41, -0.61
6.4767, -0.56, 0.83, 0.24, -2.32, 3.35, -0.61
6.4800, -0.55, 0.82, 0.25, -2.07, 3.17, -0.49
6.4833, -0.56, 0.83, 0.25, -2.01, 2.99, -0.43
6.4867, -0.56, 0.83, 0.25, -1.77, 2.62, -0.30
6.4900, -0.55, 0.83, 0.24, -1.59, 2.38, -0.24
6.4933, -0.55, 0.83, 0.25, -1.40, 2.20, -0.30
6.4967, -0.56, 0.83, 0.25, -1.10, 1.95, -0.30
6.5000, -0.55, 0.82, 0.25, -0.91, 2.07, -0.43
6.5033, -0.57, 0.83, 0.26, -0.67, 1.71, -0.37
6.5067, -0.56, 0.83, 0.23, -0.49, 1.34, -0.67
6.5100, -0.56, 0.83, 0.22, -0.43, 0.91, -0.91
6.5133, -0.56, 0.82, 0.22, -0.61, 0.55, -1.16
6.5167, -0.57, 0.83, 0.22, -0.61, 0.00, -1.16
6.5200, -0.58, 0.84, 0.22, -0.91, -0.67, -1.22
6.5233, -0.57, 0.84, 0.22, -1.46, -1.10, -1.28
6.5267, -0.56, 0.85, 0.23, -2.26, -1.40, -1.28
6.5300, -0.56, 0.85, 0.22, -2.99, -1.46, -1.22
6.5333, -0.56, 0.85, 0.24, -3.90, -1.16, -1.22
6.5367, -0.57, 0.85, 0.23, -5.00, -0.79, -1.34
6.5400, -0.57, 0.86, 0.22, -6.10, -0.12, -1.40
6.5433, -0.57, 0.85, 0.23, -7.32, 0.61, -1.34
6.5467, -0.57, 0.86, 0.22, -8.78, 1.28, -1.16
6.5500, -0.57, 0.87, 0.22, -10.24, 2.01, -1.46
6.5533, -0.58, 0.86, 0.24, -11.59, 2.74, -1.34
6.5567, -0.59, 0.87, 0.23, -13.17, 3.72, -1.16
6.5600, -0.59, 0.87, 0.24, -14.94, 4.51, -1.10
6.5633, -0.60, 0.88, 0.23, -16.71, 5.43, -0.91
6.5667, -0.60, 0.88, 0.23, -18.29, 6.59, -0.67
6.5700, -0.61, 0.90, 0.23, -20.18, 8.05, -0.43
6.5733, -0.61, 0.91, 0.23, -22.38, 9.70, -0.12
6.5767, -0.61, 0.91, 0.25, -24.70, 11.46, 0.43
6.5800, -0.61, 0.91, 0.24, -27.38, 13.41, 1.10
6.5833, -0.61, 0.93, 0.25, -30.73, 15.43, 1.83
6.5867, -0.61, 0.92, 0.25, -33.90, 17.99, 2.50
6.5900, -0.61, 0.93, 0.24, -37.20, 21.04, 3.11
6.5933, -0.61, 0.94, 0.23, -40.61, 24.39, 3.90
6.5967, -0.61, 0.94, 0.26, -44.27, 27.99, 4.63
6.6000, -0.62, 0.97, 0.23, -47.62, 31.46, 4.70
6.6033, -0.58, 0.97, 0.18, -50.49, 34.45, 4.76
6.6067, -0.57, 0.98, 0.18, -54.51, 37.13, 5.24
6.6100, -0.59, 0.95, 0.18, -59.15, 40.55, 6.16
6.6133, -0.61, 0.97, 0.17, -63.72, 44.27, 7.44
6.6167, -0.64, 0.96, 0.15, -68.23, 47.87, 8.54
6.6200, -0.64, 0.95, 0.17, -72.99, 51.28, 9.63
6.6233, -0.63, 0.97, 0.11, -77.50, 54.27, 10.24
6.6267, -0.66, 0.97, 0.12, -82.87, 57.26, 10.67
6.6300, -0.64, 0.96, 0.11, -89.27, 60.37, 11.46
6.6333, -0.55, 0.86, 0.06, -96.40, 63.29, 12.50
6.6367, -0.62, 0.99, 0.05, -102.68, 65.98, 12.32
6.6400, -0.65, 0.95, 0.07, -109.33, 69.27, 12.26
6.6433, -0.67, 0.91, 0.04, -117.26, 72.26, 13.54
6.6467, -0.63, 0.97, -0.01, -124.45, 74.70, 14.45
6.6500, -0.59, 0.96, 0.02, -130.73, 76.95, 14.82
6.6533, -0.63, 0.94, 0.08, -138.05, 78.90, 15.67
6.6567, -0.67, 0.91, 0.11, -146.16, 80.73, 16.65
6.6600, -0.68, 0.94, 0.09, -155.49, 80.85, 15.85
6.6633, -0.56, 0.99, -0.05, -165.06, 81.28, 14.76
6.6667, -0.54, 1.01, -0.02, -173.48, 83.48, 14.70
6.6700, -0.56, 0.82, 0.08, -181.77, 86.46, 14.88
6.6733, -0.58, 0.87, 0.13, -189.70, 88.35, 15.24
6.6767, -0.55, 0.92, 0.05, -197.80, 91.65, 13.96
6.6800, -0.58, 0.94, 0.16, -205.55, 96.04, 12.01
6.6833, -0.60, 0.91, 0.14, -212.26, 99.09, 10.37
6.6867, -0.57, 0.89, 0.09, -218.78, 101.71, 8.23
6.6900, -0.57, 0.89, 0.11, -225.55, 103.84, 5.73
6.6933, -0.59, 0.88, 0.13, -231.22, 105.98, 3.54
6.6967, -0.60, 0.85, 0.15, -236.77, 107.99, 1.10
6.7000, -0.58, 0.83, 0.15, -242.07, 109.63, -0.49
6.7033, -0.57, 0.81, 0.16, -247.68, 111.16, -2.01
6.7067, -0.56, 0.80, 0.21, -252.80, 112.32, -3.29
6.7100, -0.57, 0.72, 0.20, -256.65, 113.29, -4.33
6.7133, -0.59, 0.71, 0.35, -260.37, 114.09, -5.24
6.7167, -0.63, 0.71, 0.14, -263.72, 114.15, -6.22
6.7200, -0.69, 0.62, 0.30, -266.46, 114.21, -7.13
6.7233, -0.64, 0.66, 0.30, -268.72, 114.51, -7.93
6.7267, -0.65, 0.61, 0.35, -269.63, 114.02, -8.17
6.7300, -0.71, 0.62, 0.37, -269.88, 112.44, -8.17
6.7333, -0.67, 0.60, 0.34, -268.66, 111.10, -7.56
6.7367, -0.63, 0.58, 0.28, -266.95, 109.15, -6.71
6.7400, -0.68, 0.52, 0.39, -263.96, 106.83, -6.40
6.7433, -0.72, 0.50, 0.35, -260.24, 104.39, -5.43
6.7467, -0.72, 0.47, 0.40, -255.49, 101.28, -3.90
6.7500, -0.67, 0.32, 0.67, -250.00, 96.95, -2.38
6.7533, -0.68, 0.05, 0.38, -245.30, 91.95, 1.34
6.7567, -0.55, 0.76, 0.29, -244.21, 102.07, 14.45
6.7600, -0.82, 0.69, 0.39, -247.32, 103.41, 20.30
6.7633, -0.87, 0.43, 0.44, -246.10, 104.70, 26.22
6.7667, -0.85, 0.48, 0.37, -239.33, 102.44, 30.85
6.7700, -0.86, 0.60, 0.35, -232.01, 97.93, 33.78
6.7733, -0.88, 0.53, 0.37, -228.23, 92.26, 36.22
6.7767, -0.79, 0.50, 0.31, -225.43, 85.43, 39.63
6.7800, -0.79, 0.56, 0.39, -223.17, 78.60, 42.87
6.7833, -0.80, 0.56, 0.46, -222.32, 71.28, 44.27
6.7867, -0.71, 0.59, 0.44, -221.28, 64.82, 46.46
6.7900, -0.56, 0.60, 0.42, -220.24, 60.79, 48.60
6.7933, -0.53, 0.58, 0.45, -220.24, 58.29, 50.00
6.7967, -0.57, 0.63, 0.48, -219.21, 56.71, 50.49
6.8000, -0.53, 0.64, 0.41, -217.26, 55.18, 49.21
6.8033, -0.49, 0.64, 0.49, -215.79, 53.96, 47.07
6.8067, -0.47, 0.65, 0.51, -214.57, 53.41, 44.15
6.8100, -0.50, 0.65, 0.52, -213.66, 53.11, 39.63
6.8133, -0.47, 0.64, 0.53, -213.66, 53.66, 35.18
6.8167, -0.44, 0.65, 0.53, -214.45, 55.12, 30.98
6.8200, -0.43, 0.65, 0.52, -215.30, 57.44, 26.04
6.8233, -0.43, 0.66, 0.50, -216.34, 60.12, 20.67
6.8267, -0.43, 0.63, 0.54, -217.62, 63.41, 15.12
6.8300, -0.44, 0.62, 0.54, -219.39, 66.89, 10.00
6.8333, -0.45, 0.60, 0.57, -221.40, 70.06, 5.18
6.8367, -0.47, 0.59, 0.58, -223.29, 73.17, 0.43
6.8400, -0.48, 0.52, 0.65, -224.15, 76.16, -3.96
6.8433, -0.55, 0.53, 0.59, -223.66, 80.12, -8.90
6.8467, -0.52, 0.54, 0.62, -222.56, 83.72, -14.33
6.8500, -0.50, 0.57, 0.56, -221.65, 85.37, -19.45
6.8533, -0.52, 0.52, 0.62, -221.22, 87.07, -23.66
6.8567, -0.54, 0.53, 0.61, -220.37, 88.23, -26.65
6.8600, -0.58, 0.50, 0.59, -218.90, 87.13, -28.54
6.8633, -0.63, 0.51, 0.58, -216.28, 84.39, -30.49
6.8667, -0.63, 0.51, 0.56, -212.74, 80.37, -31.95
6.8700, -0.64, 0.48, 0.57, -209.51, 73.84, -33.29
6.8733, -0.62, 0.45, 0.55, -206.16, 66.16, -35.06
6.8767, -0.62, 0.54, 0.59, -201.40, 57.38, -36.34
6.8800, -0.66, 0.56, 0.50, -196.59, 48.78, -37.56
6.8833, -0.60, 0.40, 0.67, -194.63, 41.52, -37.56
6.8867, -0.58, 0.36, 0.61, -191.34, 35.12, -36.77
6.8900, -0.61, 0.41, 0.59, -183.60, 27.87, -38.84
6.8933, -0.51, 0.38, 0.59, -176.22, 20.24, -41.95
6.8967, -0.42, 0.33, 0.71, -171.52, 13.84, -43.29
6.9000, -0.41, 0.32, 0.75, -167.01, 10.73, -45.79
6.9033, -0.42, 0.31, 0.80, -162.13, 10.85, -49.15
6.9067, -0.47, 0.28, 0.85, -158.29, 12.99, -52.20
6.9100, -0.53, 0.28, 0.92, -155.18, 16.40, -55.67
6.9133, -0.56, 0.28, 0.90, -152.68, 20.67, -59.21
6.9167, -0.57, 0.28, 0.85, -151.40, 24.57, -62.38
6.9200, -0.60, 0.30, 0.86, -151.10, 28.11, -65.61
6.9233, -0.65, 0.16, 0.95, -152.13, 30.55, -67.93
6.9267, -0.67, 0.17, 0.80, -152.68, 32.26, -71.04
6.9300, -0.65, 0.29, 0.72, -151.28, 32.87, -74.70
6.9333, -0.66, 0.30, 0.77, -152.13, 31.40, -76.65
6.9367, -0.74, 0.30, 0.82, -155.24, 29.88, -77.44
6.9400, -0.77, 0.29, 0.78, -157.68, 29.39, -77.07
6.9433, -0.77, 0.27, 0.77, -159.51, 29.09, -75.73
6.9467, -0.73, 0.26, 0.75, -160.18, 28.23, -73.90
6.9500, -0.74, 0.31, 0.65, -159.33, 27.56, -71.83
6.9533, -0.75, 0.31, 0.58, -158.05, 27.62, -68.96
6.9567, -0.75, 0.26, 0.56, -157.50, 28.05, -65.18
6.9600, -0.78, 0.25, 0.56, -156.22, 28.54, -60.79
6.9633, -0.79, 0.25, 0.52, -154.15, 28.11, -56.59
6.9667, -0.81, 0.22, 0.49, -152.74, 27.07, -52.56
6.9700, -0.85, 0.20, 0.46, -151.34, 26.40, -48.54
6.9733, -0.83, 0.17, 0.48, -150.49, 25.18, -44.45
6.9767, -0.81, 0.14, 0.48, -150.00, 22.80, -40.85
6.9800, -0.81, 0.15, 0.49, -149.70, 20.43, -37.87
6.9833, -0.79, 0.12, 0.47, -150.67, 18.72, -34.88
6.9867, -0.77, 0.14, 0.51, -152.87, 17.07, -32.01
6.9900, -0.76, 0.10, 0.50, -155.79, 16.59, -29.45
6.9933, -0.79, 0.04, 0.57, -158.90, 16.77, -26.65
6.9967, -0.78, 0.09, 0.63, -160.61, 16.77, -25.98
7.0000, -0.78, 0.05, 0.83, -162.74, 17.99, -25.73
7.0033, -0.93, -0.18, 1.12, -164.70, 19.02, -24.51
7.0067, -0.80, -0.24, 1.26, -161.52, 16.22, -23.96
7.0100, -1.00, 0.10, 0.71, -147.20, 5.49, -24.88
7.0133, -0.71, 0.27, 0.69, -134.94, 0.00, -23.17
7.0167, -0.44, -0.08, 0.89, -139.33, 1.22, -18.23
7.0200, -0.55, -0.01, 1.03, -139.33, 11.95, -13.90
7.0233, -0.84, 0.00, 1.16, -135.12, 22.99, -11.95
7.0267, -0.80, -0.05, 0.90, -131.59, 36.28, -8.60
7.0300, -0.85, 0.11, 0.92, -124.63, 46.16, -7.01
7.0333, -0.96, 0.14, 0.96, -118.35, 53.11, -7.80
7.0367, -0.89, 0.04, 0.97, -116.83, 54.88, -7.99
7.0400, -0.81, 0.03, 0.93, -114.33, 52.44, -7.93
7.0433, -0.76, 0.01, 0.98, -112.20, 50.73, -8.17
7.0467, -0.77, -0.00, 0.95, -111.89, 53.60, -7.01
7.0500, -0.82, 0.07, 0.85, -109.33, 57.07, -5.55
7.0533, -0.88, 0.07, 0.78, -106.40, 58.29, -5.43
7.0567, -0.88, 0.06, 0.78, -105.06, 56.77, -5.30
7.0600, -0.87, 0.07, 0.75, -103.84, 51.89, -5.91
7.0633, -0.84, 0.06, 0.74, -102.26, 46.95, -7.50
7.0667, -0.79, 0.05, 0.71, -100.30, 42.68, -8.48
7.0700, -0.77, 0.08, 0.64, -97.44, 38.29, -9.76
7.0733, -0.76, 0.11, 0.61, -94.88, 34.15, -11.52
7.0767, -0.73, 0.20, 0.59, -92.93, 30.37, -13.11
7.0800, -0.73, 0.22, 0.52, -92.38, 26.28, -14.45
7.0833, -0.61, 0.12, 0.59, -94.70, 23.90, -15.18
7.0867, -0.59, 0.16, 0.55, -95.98, 23.05, -15.79
7.0900, -0.59, 0.19, 0.44, -94.70, 22.50, -18.29
7.0933, -0.60, 0.14, 0.34, -96.10, 22.32, -21.16
7.0967, -0.64, 0.14, 0.30, -99.33, 26.95, -23.41
7.1000, -0.75, 0.13, 0.42, -103.54, 34.51, -26.83
7.1033, -0.67, 0.15, 0.57, -108.84, 41.40, -29.45
7.1067, -0.57, 0.09, 0.50, -113.54, 45.49, -30.55
7.1100, -0.82, 0.04, 0.69, -113.17, 48.35, -33.90
7.1133, -0.87, -0.06, 0.88, -113.29, 51.10, -35.85
7.1167, -0.77, -0.13, 0.82, -116.46, 53.05, -34.33
7.1200, -0.81, 0.00, 0.81, -117.87, 55.30, -32.74
7.1233, -0.94, -0.03, 0.78, -118.35, 57.26, -31.28
7.1267, -0.97, -0.06, 0.83, -117.44, 58.96, -27.44
7.1300, -1.05, -0.19, 0.90, -113.90, 59.33, -24.09
7.1333, -1.31, -0.01, 0.89, -104.76, 59.45, -21.22
7.1367, -1.87, -0.08, 1.32, -92.07, 59.15, -18.90
7.1400, -1.61, 0.43, 1.53, -88.17, 51.04, -13.54
7.1433, -1.13, -0.21, 0.68, -105.85, 20.79, -12.87
7.1467, -0.57, 0.64, 0.90, -122.32, -6.52, -15.79
7.1500, -0.34, 0.95, 1.19, -118.66, -16.89, -22.99
7.1533, -0.80, 0.17, 1.02, -114.51, -13.96, -26.71
7.1567, -0.96, 0.33, 0.96, -110.67, -6.65, -23.29
7.1600, -0.76, 0.43, 0.94, -104.94, 1.77, -21.28
7.1633, -0.55, 0.65, 0.32, -106.34, 8.11, -23.78
7.1667, -0.30, 0.59, -0.36, -114.82, 9.76, -25.73
7.1700, -0.43, -0.06, 0.11, -130.55, 6.28, -24.09
7.1733, -0.79, 0.16, 0.26, -144.63, -0.12, -23.66
7.1767, -0.80, 0.14, 0.56, -155.06, -8.48, -25.12
7.1800, -0.84, 0.27, 0.62, -167.87, -16.28, -25.73
7.1833, -0.95, 0.11, 0.76, -175.18, -17.62, -29.21
7.1867, -1.00, 0.02, 0.75, -180.18, -18.90, -29.02
7.1900, -1.09, 0.01, 0.78, -186.40, -20.85, -26.89
7.1933, -1.12, 0.03, 0.75, -188.05, -20.24, -28.29
7.1967, -0.95, -0.00, 0.67, -187.74, -20.37, -27.99
7.2000, -0.92, -0.22, 0.33, 18.41, 42.87, 26.52
7.2033, -0.94, -0.19, 0.31, 15.73, 41.89, 29.94
7.2067, -0.99, -0.18, 0.26, 12.26, 40.12, 32.99
7.2100, -1.05, -0.17, 0.30, 8.54, 37.50, 35.55
7.2133, -1.00, -0.14, 0.29, 5.24, 33.90, 38.11
7.2167, -0.98, -0.15, 0.26, 0.00, 29.51, 41.10
7.2200, -0.97, 0.02, 0.27, -4.94, 25.00, 43.72
7.2233, -0.93, -0.15, 0.13, -7.44, 20.91, 45.55
7.2267, -0.95, -0.20, 0.20, -9.94, 15.79, 48.23
7.2300, -0.93, -0.19, 0.25, -12.01, 10.73, 51.46
7.2333, -0.95, -0.09, 0.21, -11.95, 5.98, 53.66
7.2367, -0.91, -0.17, 0.29, -10.61, 1.77, 55.73
7.2400, -0.97, -0.28, 0.41, -10.06, -1.77, 58.90
7.2433, -1.08, -0.24, 0.41, -10.30, -4.27, 62.74
7.2467, -1.09, -0.24, 0.45, -7.50, -6.10, 65.49
7.2500, -1.08, -0.21, 0.46, -2.32, -7.99, 66.83
7.2533, -1.02, -0.17, 0.39, 3.90, -10.06, 67.87
7.2567, -1.00, -0.17, 0.39, 9.21, -11.28, 68.29
7.2600, -1.00, -0.19, 0.37, 12.32, -11.16, 68.29
7.2633, -1.10, -0.10, 0.37, 13.60, -12.26, 67.93
7.2667, -0.93, -0.05, 0.37, 15.43, -14.63, 66.04
7.2700, -0.78, -0.10, 0.33, 17.26, -17.38, 63.11
7.2733, -0.72, -0.13, 0.45, 22.20, -17.26, 58.41
7.2767, -0.74, -0.18, 0.50, 29.15, -13.11, 54.02
7.2800, -0.79, -0.17, 0.48, 36.46, -6.95, 49.82
7.2833, -0.83, -0.06, 0.40, 44.63, -1.22, 44.70
7.2867, -0.89, -0.03, 0.40, 50.61, 2.38, 39.09
7.2900, -0.82, -0.01, 0.40, 53.60, 4.51, 34.02
7.2933, -0.85, -0.07, 0.54, 55.12, 7.07, 30.85
7.2967, -0.84, -0.10, 0.54, 57.44, 11.52, 28.54
7.3000, -0.88, -0.05, 0.53, 61.04, 15.73, 25.49
7.3033, -0.87, 0.00, 0.47, 64.33, 19.76, 23.35
7.3067, -0.90, 0.05, 0.45, 65.61, 23.41, 22.74
7.3100, -0.90, 0.06, 0.43, 64.39, 25.49, 21.65
7.3133, -0.92, 0.04, 0.45, 61.65, 26.46, 21.28
7.3167, -0.94, 0.07, 0.44, 58.54, 26.83, 22.62
7.3200, -0.89, 0.16, 0.42, 55.00, 26.10, 24.33
7.3233, -0.92, 0.04, 0.45, 51.34, 24.63, 25.12
7.3267, -0.95, 0.10, 0.35, 48.48, 23.29, 25.24
7.3300, -0.93, 0.09, 0.39, 44.09, 21.52, 26.10
7.3333, -0.92, 0.03, 0.36, 38.84, 19.02, 27.80
7.3367, -0.87, 0.17, 0.32, 34.45, 15.91, 28.48
7.3400, -0.93, 0.06, 0.25, 32.13, 13.41, 27.56
7.3433, -0.96, 0.10, 0.39, 27.87, 10.85, 28.48
7.3467, -0.98, 0.12, 0.37, 21.77, 8.35, 30.43
7.3500, -1.00, 0.09, 0.37, 16.16, 6.28, 31.28
7.3533, -1.02, 0.18, 0.42, 11.40, 4.02, 31.77
7.3567, -1.01, 0.11, 0.33, 7.62, 1.52, 31.52
7.3600, -0.99, 0.03, 0.38, 4.45, -1.46, 31.59
7.3633, -0.96, 0.01, 0.36, 2.93, -4.21, 30.98
7.3667, -0.95, 0.04, 0.35, 3.35, -6.40, 29.70
7.3700, -0.91, 0.20, 0.35, 4.76, -8.41, 28.11
7.3733, -0.93, 0.18, 0.39, 5.00, -10.18, 26.46
7.3767, -0.85, -0.02, 0.44, 1.52, -10.43, 26.22
7.3800, -0.91, -0.03, 0.38, 1.65, -9.70, 26.10
7.3833, -0.91, -0.04, 0.32, 6.83, -9.39, 23.41
7.3867, -0.93, 0.31, 0.15, 12.62, -11.22, 20.37
7.3900, -0.84, 0.12, 0.46, 15.55, -13.84, 17.80
7.3933, -0.97, 0.02, 0.42, 14.39, -16.28, 16.65
7.3967, -1.01, -0.05, 0.55, 13.54, -18.05, 15.73
7.4000, -0.92, -0.04, 0.51, 14.63, -19.63, 13.96
7.4033, -0.90, 0.02, 0.63, 18.41, -19.33, 12.13
7.4067, -0.88, -0.06, 0.58, 23.17, -15.73, 11.22
7.4100, -0.91, 0.01, 0.52, 27.32, -10.91, 10.55
7.4133, -0.94, 0.06, 0.45, 31.28, -6.52, 8.72
7.4167, -0.90, 0.05, 0.44, 33.41, -3.66, 7.07
7.4200, -0.85, 0.03, 0.46, 33.11, -1.77, 6.59
7.4233, -0.87, 0.04, 0.54, 33.05, 0.61, 6.04
7.4267, -0.90, 0.03, 0.56, 33.66, 3.90, 5.30
7.4300, -0.91, 0.04, 0.51, 34.76, 7.13, 4.94
7.4333, -0.93, 0.07, 0.48, 34.82, 9.94, 4.63
7.4367, -0.95, 0.09, 0.47, 33.35, 11.77, 4.45
7.4400, -0.96, 0.08, 0.44, 31.04, 12.74, 4.15
7.4433, -0.96, 0.07, 0.43, 28.29, 12.68, 4.39
7.4467, -0.96, 0.05, 0.44, 25.06, 11.89, 4.70
7.4500, -0.79, -0.07, 0.51, 22.07, 10.61, 4.82
7.4533, -0.87, -0.05, 0.58, 19.94, 10.00, 3.66
7.4567, -0.85, 0.06, 0.45, 18.17, 14.63, 3.48
7.4600, -0.76, 0.02, 0.43, 15.55, 20.06, 4.33
7.4633, -0.97, -0.01, 0.48, 12.32, 21.89, 4.21
7.4667, -0.99, -0.10, 0.42, 9.39, 22.38, 3.72
7.4700, -0.93, -0.11, 0.50, 7.74, 21.40, 3.66
7.4733, -0.97, -0.04, 0.52, 7.87, 20.18, 3.41
7.4767, -0.90, -0.03, 0.48, 7.87, 20.79, 3.90
7.4800, -0.88, -0.03, 0.33, 7.74, 22.01, 4.63
7.4833, -0.92, -0.00, 0.40, 6.95, 22.80, 6.04
7.4867, -0.92, -0.03, 0.45, 5.67, 23.41, 7.32
7.4900, -0.95, -0.04, 0.49, 5.06, 23.54, 8.41
7.4933, -0.93, -0.06, 0.45, 5.43, 23.66, 9.70
7.4967, -0.91, -0.04, 0.43, 6.40, 23.72, 10.85
7.5000, -0.94, -0.02, 0.46, 7.20, 23.41, 11.52
7.5033, -0.92, -0.03, 0.42, 7.50, 23.72, 12.13
7.5067, -0.89, 0.01, 0.45, 7.56, 24.27, 12.93
7.5100, -0.87, -0.02, 0.43, 6.65, 26.16, 13.48
7.5133, -0.94, -0.07, 0.41, 4.51, 28.48, 15.12
7.5167, -1.04, -0.03, 0.37, 4.94, 29.57, 16.89
7.5200, -1.02, -0.06, 0.31, 5.91, 28.11, 17.38
7.5233, -1.01, -0.02, 0.29, 5.85, 24.45, 17.99
7.5267, -1.02, -0.01, 0.28, 5.61, 20.91, 18.96
7.5300, -1.02, -0.03, 0.26, 4.33, 17.74, 19.88
7.5333, -1.01, -0.00, 0.24, 3.54, 13.96, 20.37
7.5367, -0.98, 0.03, 0.24, 3.23, 10.06, 20.37
7.5400, -0.96, 0.03, 0.21, 2.20, 6.16, 20.37
7.5433, -0.96, 0.02, 0.23, 0.18, 2.62, 19.82
7.5467, -0.97, 0.03, 0.22, -2.07, -0.37, 18.84
7.5500, -0.95, 0.02, 0.23, -3.48, -2.80, 18.05
7.5533, -0.94, 0.02, 0.26, -4.39, -4.82, 16.95
7.5567, -0.95, 0.03, 0.27, -4.88, -6.40, 15.61
7.5600, -0.93, 0.00, 0.29, -5.06, -6.71, 14.33
7.5633, -0.96, 0.01, 0.35, -4.70, -6.83, 13.23
7.5667, -0.94, -0.01, 0.31, -3.72, -6.89, 12.01
7.5700, -0.94, -0.02, 0.35, -2.87, -7.44, 11.04
7.5733, -0.97, -0.06, 0.36, -2.01, -7.87, 10.12
7.5767, -0.92, 0.00, 0.40, -1.40, -8.11, 9.45
7.5800, -0.91, 0.01, 0.37, -0.49, -8.23, 8.60
7.5833, -0.87, 0.02, 0.40, 0.91, -7.80, 7.38
7.5867, -0.88, -0.00, 0.44, 2.56, -5.73, 6.89
7.5900, -0.90, -0.02, 0.44, 4.63, -2.99, 6.16
7.5933, -0.89, 0.01, 0.44, 6.65, -0.30, 5.00
7.5967, -0.91, 0.02, 0.41, 8.29, 2.13, 4.27
7.6000, -0.92, 0.03, 0.43, 9.51, 4.33, 3.54
7.6033, -0.93, 0.03, 0.41, 9.82, 6.22, 2.80
7.6067, -0.95, 0.04, 0.43, 10.06, 7.56, 2.20
7.6100, -0.95, 0.07, 0.40, 10.55, 8.54, 1.34
7.6133, -0.96, 0.08, 0.41, 10.30, 8.96, 0.30
7.6167, -0.97, 0.10, 0.38, 10.06, 9.09, -0.67
7.6200, -0.97, 0.10, 0.40, 9.39, 8.78, -1.83
7.6233, -0.97, 0.10, 0.38, 7.99, 8.05, -3.11
7.6267, -0.97, 0.11, 0.36, 6.28, 7.01, -4.27
7.6300, -0.97, 0.11, 0.36, 4.15, 6.04, -5.43
7.6333, -0.97, 0.10, 0.36, 2.01, 5.18, -6.34
7.6367, -0.97, 0.10, 0.35, -0.30, 4.51, -7.13
7.6400, -0.98, 0.09, 0.32, -2.93, 3.29, -7.74
7.6433, -0.97, 0.09, 0.35, -5.49, 1.83, -8.29
7.6467, -0.98, 0.07, 0.33, -8.11, 0.37, -8.72
7.6500, -0.98, 0.06, 0.32, -10.79, -1.16, -8.78
7.6533, -0.98, 0.04, 0.35, -13.05, -2.74, -8.84
7.6567, -0.96, 0.02, 0.32, -15.12, -4.21, -8.84
7.6600, -0.97, 0.01, 0.32, -16.71, -5.49, -8.48
7.6633, -0.97, 0.00, 0.31, -18.11, -6.95, -7.99
7.6667, -0.96, 0.00, 0.30, -19.45, -8.54, -7.01
7.6700, -0.96, -0.02, 0.29, -20.61, -10.55, -5.73
7.6733, -0.96, -0.03, 0.31, -21.59, -12.44, -4.57
7.6767, -0.96, -0.05, 0.31, -22.13, -13.96, -3.05
7.6800, -0.96, -0.05, 0.31, -22.07, -15.24, -1.40
7.6833, -0.95, -0.06, 0.31, -21.89, -16.16, 0.43
7.6867, -0.96, -0.06, 0.34, -21.52, -16.77, 2.44
7.6900, -0.95, -0.06, 0.32, -20.67, -17.07, 4.33
7.6933, -0.95, -0.07, 0.32, -19.70, -17.07, 6.16
7.6967, -0.95, -0.06, 0.33, -18.66, -16.95, 8.05
7.7000, -0.95, -0.05, 0.37, -17.50, -16.83, 9.76
7.7033, -0.95, -0.06, 0.37, -16.04, -16.65, 10.85
7.7067, -0.94, -0.05, 0.40, -14.33, -16.10, 11.77
7.7100, -0.93, -0.06, 0.41, -12.26, -14.94, 12.20
7.7133, -0.93, -0.02, 0.44, -9.51, -13.17, 12.07
7.7167, -0.91, -0.02, 0.45, -6.95, -10.91, 11.71
7.7200, -0.89, -0.01, 0.48, -4.21, -8.23, 10.61
7.7233, -0.89, 0.01, 0.46, -1.89, -4.82, 8.96
7.7267, -0.90, 0.01, 0.45, 0.30, -0.91, 6.95
7.7300, -0.90, 0.02, 0.47, 2.38, 2.93, 4.88
7.7333, -0.93, 0.01, 0.45, 4.27, 6.34, 3.23
7.7367, -0.99, -0.01, 0.41, 6.04, 8.90, 1.52
7.7400, -0.97, -0.03, 0.38, 7.68, 10.12, 0.06
7.7433, -1.01, -0.02, 0.41, 8.66, 10.37, -0.24
7.7467, -1.01, 0.02, 0.43, 9.02, 10.18, -0.49
7.7500, -0.98, 0.01, 0.41, 9.27, 9.76, -0.37
7.7533, -0.96, 0.01, 0.40, 8.48, 9.27, 0.12
7.7567, -0.97, 0.00, 0.37, 7.13, 9.02, 0.91
7.7600, -0.95, 0.02, 0.37, 5.18, 8.78, 1.83
7.7633, -0.97, 0.02, 0.37, 2.99, 8.41, 3.11
7.7667, -0.99, -0.02, 0.32, 1.10, 7.93, 4.02
7.7700, -0.98, -0.01, 0.32, -0.98, 6.52, 4.88
7.7733, -1.00, 0.01, 0.30, -2.99, 4.33, 5.73
7.7767, -0.99, 0.00, 0.29, -4.63, 1.95, 6.59
7.7800, -0.98, 0.02, 0.29, -6.40, -0.61, 7.62
7.7833, -0.96, 0.02, 0.30, -8.90, -2.99, 8.54
7.7867, -0.96, 0.02, 0.33, -11.59, -5.18, 9.82
7.7900, -0.99, 0.00, 0.29, -12.99, -7.01, 10.61
7.7933, -0.92, 0.11, 0.31, -13.78, -8.60, 10.79
7.7967, -0.89, 0.15, 0.26, -14.33, -10.12, 9.76
7.8000, -0.88, 0.15, 0.26, -14.88, -11.71, 6.71
7.8033, -0.90, 0.13, 0.29, -16.34, -13.05, 3.23
7.8067, -0.94, 0.13, 0.31, -17.32, -14.09, -1.40
7.8100, -0.94, 0.09, 0.36, -16.65, -15.00, -6.16
7.8133, -0.91, 0.07, 0.34, -15.98, -15.43, -9.88
7.8167, -0.93, 0.05, 0.38, -15.67, -15.00, -12.44
7.8200, -0.94, -0.00, 0.42, -15.30, -14.15, -13.54
7.8233, -0.91, -0.02, 0.46, -14.39, -12.62, -13.23
7.8267, -0.89, -0.01, 0.48, -13.05, -10.79, -12.26
7.8300, -0.90, -0.04, 0.52, -11.28, -7.80, -10.24
7.8333, -0.89, -0.04, 0.52, -9.39, -3.90, -8.05
7.8367, -0.90, -0.04, 0.53, -7.13, 0.30, -5.98
7.8400, -0.89, -0.04, 0.53, -4.27, 4.63, -3.84
7.8433, -0.92, -0.02, 0.55, -1.46, 9.09, -2.20
7.8467, -0.91, -0.02, 0.56, 1.59, 13.23, -1.34
7.8500, -0.91, -0.01, 0.54, 4.39, 17.62, -0.61
7.8533, -0.93, -0.01, 0.52, 7.26, 21.65, -0.49
7.8567, -0.95, 0.01, 0.50, 10.06, 24.70, -0.98
7.8600, -0.95, 0.02, 0.47, 12.44, 26.77, -1.65
7.8633, -0.94, 0.02, 0.45, 13.96, 27.93, -2.32
7.8667, -0.97, 0.02, 0.42, 14.88, 28.48, -2.80
7.8700, -0.99, 0.03, 0.39, 15.49, 28.23, -3.35
7.8733, -0.98, 0.04, 0.35, 14.94, 27.20, -3.60
7.8767, -0.99, 0.05, 0.34, 13.66, 25.30, -3.66
7.8800, -0.99, 0.06, 0.34, 11.65, 23.11, -3.78
7.8833, -0.98, 0.07, 0.33, 8.78, 20.37, -4.09
7.8867, -0.98, 0.07, 0.32, 5.43, 17.38, -4.70
7.8900, -0.98, 0.07, 0.30, 1.95, 14.63, -5.18
7.8933, -1.00, 0.06, 0.30, -1.65, 11.71, -5.91
7.8967, -1.00, 0.06, 0.29, -5.24, 8.84, -6.40
7.9000, -0.85, 0.12, 0.02, -21.34, 70.61, 0.91
7.9033, -1.00, 0.05, 0.10, -21.46, 68.72, -0.12
7.9067, -1.05, 0.03, 0.16, -22.01, 65.98, -1.10
7.9100, -1.01, 0.13, 0.16, -20.85, 62.07, -2.62
7.9133, -0.99, 0.09, 0.20, -19.70, 58.35, -5.00
7.9167, -1.07, 0.04, 0.18, -19.94, 55.98, -5.43
7.9200, -1.02, 0.07, 0.14, -20.79, 54.21, -5.49
7.9233, -0.93, 0.08, 0.08, -20.61, 52.01, -6.77
7.9267, -0.93, 0.12, 0.09, -18.84, 49.76, -7.74
7.9300, -0.95, 0.10, 0.07, -17.62, 48.72, -8.66
7.9333, -0.97, 0.11, 0.06, -17.13, 47.74, -9.63
7.9367, -0.99, 0.07, 0.08, -16.89, 46.34, -10.61
7.9400, -0.96, 0.05, 0.12, -16.34, 45.00, -11.16
7.9433, -0.95, 0.05, 0.12, -14.70, 43.96, -11.34
7.9467, -1.00, 0.06, 0.12, -13.35, 43.29, -11.71
7.9500, -1.00, 0.05, 0.16, -13.17, 43.41, -11.28
7.9533, -1.01, 0.03, 0.15, -12.74, 43.41, -10.30
7.9567, -1.00, 0.05, 0.13, -11.77, 42.99, -9.82
7.9600, -0.96, 0.04, 0.13, -11.40, 42.80, -8.84
7.9633, -0.93, 0.02, 0.16, -12.07, 43.48, -7.13
7.9667, -0.92, 0.05, 0.11, -12.38, 44.15, -5.73
7.9700, -0.88, -0.01, 0.07, -12.26, 44.88, -3.41
7.9733, -0.92, 0.05, 0.13, -11.46, 45.85, -0.98
7.9767, -0.96, 0.06, 0.15, -9.57, 46.59, 0.79
7.9800, -0.93, 0.06, 0.10, -8.90, 46.59, 2.26
7.9833, -0.91, 0.05, 0.06, -9.21, 45.79, 3.17
7.9867, -0.95, 0.06, 0.08, -8.60, 44.94, 3.96
7.9900, -0.91, 0.06, 0.08, -7.74, 44.51, 4.45
7.9933, -0.92, 0.07, 0.10, -7.01, 43.66, 4.82
7.9967, -0.94, 0.07, 0.14, -6.83, 42.62, 5.37
8.0000, -0.95, 0.05, 0.13, -6.71, 42.01, 5.67
8.0033, -0.96, 0.07, 0.11, -5.85, 41.04, 6.10
8.0067, -0.96, 0.05, 0.12, -5.18, 39.33, 6.22
8.0100, -0.98, 0.07, 0.11, -5.06, 37.62, 6.65
8.0133, -0.99, 0.07, 0.12, -4.82, 36.10, 7.13
8.0167, -1.00, 0.06, 0.12, -4.76, 34.45, 7.44
8.0200, -0.99, 0.07, 0.12, -4.15, 32.38, 7.74
8.0233, -1.00, 0.06, 0.10, -3.96, 30.18, 8.05
8.0267, -1.00, 0.06, 0.10, -3.96, 28.17, 8.41
8.0300, -1.02, 0.07, 0.10, -3.72, 26.04, 8.72
8.0333, -1.00, 0.08, 0.10, -3.29, 23.84, 8.96
8.0367, -1.02, 0.10, 0.11, -2.74, 21.83, 8.96
8.0400, -1.03, 0.11, 0.14, -2.32, 20.30, 8.48
8.0433, -1.05, 0.13, 0.14, -2.01, 19.33, 7.56
8.0467, -1.06, 0.14, 0.13, -1.46, 18.60, 6.34
8.0500, -1.06, 0.13, 0.13, -0.98, 18.54, 4.63
8.0533, -1.07, 0.12, 0.13, -0.61, 19.02, 2.74
8.0567, -1.08, 0.12, 0.13, -0.24, 19.82, 1.04
8.0600, -1.08, 0.11, 0.13, -0.43, 20.73, -0.24
8.0633, -1.08, 0.09, 0.13, -0.06, 21.71, -1.46
8.0667, -1.04, 0.08, 0.15, 0.06, 22.68, -2.07
8.0700, -1.01, 0.06, 0.17, 0.24, 24.09, -2.32
8.0733, -0.99, 0.06, 0.16, 0.55, 25.98, -2.26
8.0767, -0.98, 0.06, 0.16, 0.98, 28.72, -2.20
8.0800, -0.97, 0.05, 0.16, 1.65, 31.65, -1.71
8.0833, -0.98, 0.05, 0.15, 2.07, 34.82, -0.79
8.0867, -0.99, 0.04, 0.15, 2.07, 37.74, 0.61
8.0900, -0.99, 0.04, 0.15, 1.89, 40.67, 2.26
8.0933, -0.99, 0.03, 0.14, 1.95, 43.05, 4.27
8.0967, -0.99, 0.03, 0.13, 1.89, 45.00, 6.10
8.1000, -0.99, 0.05, 0.12, 2.01, 46.34, 8.05
8.1033, -0.96, 0.06, 0.11, 2.13, 47.20, 10.00
8.1067, -0.96, 0.07, 0.10, 2.13, 47.50, 11.46
8.1100, -0.97, 0.09, 0.09, 2.20, 47.13, 12.26
8.1133, -0.95, 0.08, 0.09, 1.95, 46.16, 12.74
8.1167, -0.96, 0.08, 0.09, 1.40, 44.57, 13.11
8.1200, -0.99, 0.07, 0.12, 0.79, 42.68, 13.29
8.1233, -0.95, 0.07, 0.07, 0.73, 40.37, 13.48
8.1267, -0.96, 0.09, 0.07, 1.10, 37.99, 13.60
8.1300, -0.98, 0.07, 0.07, 1.22, 35.98, 14.21
8.1333, -0.99, 0.06, 0.07, 0.79, 33.29, 14.27
8.1367, -0.95, 0.11, 0.07, 0.79, 30.79, 14.21
8.1400, -0.97, 0.05, 0.05, 0.55, 28.84, 14.45
8.1433, -0.96, 0.09, 0.10, 0.18, 27.26, 14.15
8.1467, -0.97, 0.09, 0.10, 0.30, 26.04, 13.90
8.1500, -0.99, 0.08, 0.12, 0.37, 25.12, 13.84
8.1533, -0.98, 0.09, 0.10, 0.61, 24.21, 13.54
8.1567, -1.00, 0.09, 0.10, 0.73, 23.23, 13.60
8.1600, -1.01, 0.07, 0.11, 0.55, 22.44, 13.66
8.1633, -1.01, 0.06, 0.13, 0.30, 21.59, 13.96
8.1667, -1.01, 0.06, 0.12, 0.37, 20.98, 14.51
8.1700, -1.01, 0.04, 0.12, 0.18, 20.79, 15.30
8.1733, -1.01, 0.03, 0.10, 0.00, 20.79, 16.71
8.1767, -1.01, 0.01, 0.13, -0.24, 20.91, 18.54
8.1800, -1.00, 0.00, 0.13, -0.49, 21.22, 21.04
8.1833, -0.99, 0.01, 0.14, -0.49, 21.65, 23.48
8.1867, -0.98, -0.00, 0.14, -0.43, 22.68, 26.10
8.1900, -0.97, 0.01, 0.13, -0.43, 24.09, 29.02
8.1933, -0.96, 0.01, 0.13, -0.24, 25.85, 31.77
8.1967, -0.96, 0.03, 0.12, -0.43, 27.44, 34.21
8.2000, -0.95, 0.03, 0.11, -0.85, 28.60, 36.52
8.2033, -0.96, 0.04, 0.10, -1.28, 29.45, 38.54
8.2067, -0.94, 0.06, 0.11, -1.95, 29.94, 40.30
8.2100, -0.95, 0.08, 0.09, -2.87, 30.18, 41.52
8.2133, -0.95, 0.08, 0.10, -3.66, 30.30, 42.50
8.2167, -0.98, 0.08, 0.09, -4.39, 29.76, 43.05
8.2200, -0.98, 0.09, 0.08, -4.63, 28.90, 43.11
8.2233, -1.01, 0.07, 0.10, -5.12, 27.80, 43.05
8.2267, -1.00, 0.07, 0.08, -5.98, 26.04, 43.11
8.2300, -0.99, 0.09, 0.07, -6.59, 23.96, 42.87
8.2333, -0.99, 0.08, 0.07, -7.20, 21.83, 42.50
8.2367, -0.97, 0.08, 0.08, -7.99, 19.63, 42.07
8.2400, -0.98, 0.08, 0.07, -8.41, 17.26, 41.65
8.2433, -0.97, 0.07, 0.08, -9.02, 15.00, 41.10
8.2467, -0.97, 0.08, 0.06, -9.57, 12.56, 40.37
8.2500, -0.99, 0.07, 0.07, -10.30, 10.18, 39.82
8.2533, -1.00, 0.05, 0.10, -10.85, 8.05, 39.51
8.2567, -1.01, 0.03, 0.10, -11.10, 5.91, 39.51
8.2600, -1.01, 0.05, 0.08, -10.67, 4.09, 39.57
8.2633, -0.99, 0.06, 0.06, -10.49, 2.01, 39.57
8.2667, -0.99, 0.05, 0.06, -10.73, 0.00, 39.76
8.2700, -0.98, 0.06, 0.07, -11.16, -1.59, 39.82
8.2733, -0.98, 0.05, 0.09, -11.46, -2.68, 39.88
8.2767, -0.97, 0.04, 0.12, -11.89, -3.05, 40.12
8.2800, -0.98, 0.04, 0.12, -11.89, -2.56, 40.24
8.2833, -0.99, 0.04, 0.12, -11.89, -1.46, 40.37
8.2867, -1.00, 0.02, 0.13, -12.01, -0.12, 40.61
8.2900, -1.01, 0.02, 0.13, -11.89, 1.52, 40.91
8.2933, -1.01, 0.03, 0.13, -11.59, 3.84, 41.28
8.2967, -1.04, 0.03, 0.13, -11.52, 6.77, 41.89
8.3000, -1.03, 0.04, 0.13, -12.20, 10.06, 42.44
8.3033, -1.02, 0.05, 0.13, -12.80, 13.17, 42.74
8.3067, -1.04, 0.08, 0.13, -13.54, 16.46, 42.93
8.3100, -1.03, 0.07, 0.11, -15.00, 20.30, 42.74
8.3133, -1.03, 0.06, 0.15, -16.65, 23.84, 42.44
8.3167, -1.03, 0.07, 0.13, -17.56, 26.95, 41.34
8.3200, -1.04, 0.07, 0.13, -17.87, 29.82, 40.06
8.3233, -1.05, 0.07, 0.13, -18.23, 32.20, 39.02
8.3267, -1.05, 0.09, 0.11, -18.35, 33.41, 37.99
8.3300, -1.04, 0.07, 0.09, -18.72, 34.33, 36.59
8.3333, -1.03, 0.07, 0.09, -18.84, 34.88, 35.37
8.3367, -1.02, 0.08, 0.07, -19.21, 35.06, 34.15
8.3400, -1.03, 0.07, 0.08, -19.63, 35.00, 32.62
8.3433, -1.02, 0.08, 0.09, -20.12, 35.00, 31.04
8.3467, -1.02, 0.08, 0.08, -20.73, 34.39, 29.51
8.3500, -1.01, 0.07, 0.08, -21.40, 33.41, 27.99
8.3533, -1.01, 0.08, 0.06, -22.01, 32.38, 26.65
8.3567, -1.02, 0.07, 0.07, -22.74, 30.98, 25.30
8.3600, -1.01, 0.06, 0.09, -23.72, 29.21, 24.27
8.3633, -1.03, 0.04, 0.10, -24.15, 27.01, 23.05
8.3667, -1.03, 0.06, 0.03, -24.21, 24.88, 21.95
8.3700, -1.01, 0.04, 0.07, -24.76, 22.38, 21.46
8.3733, -1.02, 0.05, 0.06, -25.55, 19.39, 20.85
8.3767, -1.01, 0.06, 0.04, -26.10, 16.22, 19.76
8.3800, -0.99, 0.03, 0.06, -26.89, 13.72, 19.09
8.3833, -1.00, 0.03, 0.06, -27.38, 11.52, 18.78
8.3867, -1.00, 0.04, 0.05, -27.26, 9.27, 18.41
8.3900, -0.99, 0.04, 0.08, -27.32, 7.13, 17.93
8.3933, -1.00, 0.03, 0.11, -27.26, 5.30, 17.50
8.3967, -0.98, 0.04, 0.11, -27.20, 4.39, 17.07
8.4000, -0.97, 0.02, 0.10, -26.83, 4.27, 16.59
8.4033, -0.99, 0.03, 0.10, -26.16, 4.82, 16.22
8.4067, -0.99, 0.04, 0.11, -25.55, 5.73, 15.73
8.4100, -1.00, 0.04, 0.11, -25.18, 7.13, 15.06
8.4133, -1.00, 0.04, 0.13, -24.70, 8.72, 14.21
8.4167, -1.02, 0.05, 0.11, -24.33, 10.49, 13.29
8.4200, -1.03, 0.05, 0.12, -23.96, 12.26, 12.32
8.4233, -1.01, 0.08, 0.07, -24.45, 13.78, 11.52
8.4267, -0.97, 0.08, 0.11, -25.43, 15.24, 10.43
8.4300, -0.99, 0.09, 0.10, -26.22, 17.01, 9.09
8.4333, -0.99, 0.07, 0.09, -27.44, 19.09, 7.74
8.4367, -0.98, 0.08, 0.10, -28.66, 20.73, 6.28
8.4400, -1.00, 0.08, 0.10, -29.02, 22.20, 4.63
8.4433, -1.00, 0.09, 0.09, -29.21, 23.78, 2.80
8.4467, -1.01, 0.08, 0.08, -29.45, 24.27, 1.16
8.4500, -1.02, 0.08, 0.08, -29.33, 24.21, -0.91
8.4533, -1.02, 0.08, 0.07, -29.39, 24.15, -2.99
8.4567, -1.04, 0.08, 0.10, -29.39, 23.48, -4.82
8.4600, -1.05, 0.08, 0.07, -29.51, 22.38, -6.71
8.4633, -1.04, 0.07, 0.06, -29.94, 20.98, -8.35
8.4667, -1.05, 0.07, 0.07, -30.06, 19.51, -10.12
8.4700, -1.04, 0.06, 0.08, -30.37, 17.68, -11.77
8.4733, -1.05, 0.06, 0.09, -30.43, 15.79, -13.23
8.4767, -1.06, 0.06, 0.10, -30.12, 14.27, -14.76
8.4800, -1.05, 0.06, 0.08, -30.00, 12.62, -16.04
